rt,trial_type,trial_index,trial_number,time_elapsed,random_id,figure,difficulty,text_response,word_count,file_name,participant_id,image_description,participant_gender,participant_major,participant_is_group_member,stimulus_complexity
74162,survey-text,4,1,92742,p09z5qk6x27,stimuli/114.jpg,hard,sharp and uneven,3,/Users/martincz/GitHub/COGS119/group_wi26_verbal_complexity/analysis/../data/raw_data/p09z5qk6x27_1772155536316.csv,lynx,sharp and uneven ,Male,Cognitive Behavioral Neuroscience,FALSE,114
82838,survey-text,5,2,175586,p09z5qk6x27,stimuli/82.jpg,medium,"sort of symmetrical, sort of sharp and pointy with some flat edges",12,/Users/martincz/GitHub/COGS119/group_wi26_verbal_complexity/analysis/../data/raw_data/p09z5qk6x27_1772155536316.csv,lynx,"sort of symmetrical, sort of sharp and pointy with some flat edges",Male,Cognitive Behavioral Neuroscience,FALSE,82
85431,survey-text,6,3,261021,p09z5qk6x27,stimuli/58.jpg,medium,flat edges kinda boring lowkey no personality,7,/Users/martincz/GitHub/COGS119/group_wi26_verbal_complexity/analysis/../data/raw_data/p09z5qk6x27_1772155536316.csv,lynx,flat edges kinda boring lowkey no personality,Male,Cognitive Behavioral Neuroscience,FALSE,58
48393,survey-text,7,4,309419,p09z5qk6x27,stimuli/10.jpg,easy,"even and square-like, kind of looks like a trapezoid,4 clear sides",11,/Users/martincz/GitHub/COGS119/group_wi26_verbal_complexity/analysis/../data/raw_data/p09z5qk6x27_1772155536316.csv,lynx,"even and square-like, kind of looks like a trapezoid,4 clear sides",Male,Cognitive Behavioral Neuroscience,FALSE,10
68748,survey-text,8,5,378174,p09z5qk6x27,stimuli/66.jpg,medium,one side has more points and sharper edges and the other side has less,14,/Users/martincz/GitHub/COGS119/group_wi26_verbal_complexity/analysis/../data/raw_data/p09z5qk6x27_1772155536316.csv,lynx,one side has more points and sharper edges and the other side has less,Male,Cognitive Behavioral Neuroscience,FALSE,66
129373,survey-text,9,6,507556,p09z5qk6x27,stimuli/122.jpg,hard,"uneven but not sharp, looks like it has some arms or branches sticking out from it
",16,/Users/martincz/GitHub/COGS119/group_wi26_verbal_complexity/analysis/../data/raw_data/p09z5qk6x27_1772155536316.csv,lynx,"uneven but not sharp, looks like it has some arms or branches sticking out from it
",Male,Cognitive Behavioral Neuroscience,FALSE,122
42605,survey-text,10,7,550167,p09z5qk6x27,stimuli/26.jpg,easy,"looks like a dorito with a part taken out of it, like it was almost a triangle but had a part removed",22,/Users/martincz/GitHub/COGS119/group_wi26_verbal_complexity/analysis/../data/raw_data/p09z5qk6x27_1772155536316.csv,lynx,"looks like a dorito with a part taken out of it, like it was almost a triangle but had a part removed",Male,Cognitive Behavioral Neuroscience,FALSE,26
40897,survey-text,11,8,591070,p09z5qk6x27,stimuli/106.jpg,medium,"sharp and uneven, has some clean 90 degree angles at the bottom middle",13,/Users/martincz/GitHub/COGS119/group_wi26_verbal_complexity/analysis/../data/raw_data/p09z5qk6x27_1772155536316.csv,lynx,"sharp and uneven, has some clean 90 degree angles at the bottom middle ",Male,Cognitive Behavioral Neuroscience,FALSE,106
47175,survey-text,12,9,638250,p09z5qk6x27,stimuli/42.jpg,easy,"skinny at the bottom and has a broad part at the top, overall flat edges",15,/Users/martincz/GitHub/COGS119/group_wi26_verbal_complexity/analysis/../data/raw_data/p09z5qk6x27_1772155536316.csv,lynx,"skinny at the bottom and has a broad part at the top, overall flat edges",Male,Cognitive Behavioral Neuroscience,FALSE,42
58733,survey-text,13,10,696988,p09z5qk6x27,stimuli/98.jpg,medium,kind of looks like an anvil if you look at it sideways,12,/Users/martincz/GitHub/COGS119/group_wi26_verbal_complexity/analysis/../data/raw_data/p09z5qk6x27_1772155536316.csv,lynx,kind of looks like an anvil if you look at it sideways,Male,Cognitive Behavioral Neuroscience,FALSE,98
30278,survey-text,14,11,727271,p09z5qk6x27,stimuli/34.jpg,easy,"3 mostly flat edges, with inward spikes at the top",10,/Users/martincz/GitHub/COGS119/group_wi26_verbal_complexity/analysis/../data/raw_data/p09z5qk6x27_1772155536316.csv,lynx,"3 mostly flat edges, with inward spikes at the top",Male,Cognitive Behavioral Neuroscience,FALSE,34
73944,survey-text,15,12,801221,p09z5qk6x27,stimuli/154.jpg,hard,looks like an L flipped and if it was sharp,10,/Users/martincz/GitHub/COGS119/group_wi26_verbal_complexity/analysis/../data/raw_data/p09z5qk6x27_1772155536316.csv,lynx,looks like an L flipped and if it was sharp,Male,Cognitive Behavioral Neuroscience,FALSE,154
58776,survey-text,16,13,860001,p09z5qk6x27,stimuli/146.jpg,hard,"uneven and jagged, lots of inward folding, making it has a large perimeter",13,/Users/martincz/GitHub/COGS119/group_wi26_verbal_complexity/analysis/../data/raw_data/p09z5qk6x27_1772155536316.csv,lynx,"uneven and jagged, lots of inward folding, making it has a large perimeter",Male,Cognitive Behavioral Neuroscience,FALSE,146
18631,survey-text,17,14,878638,p09z5qk6x27,stimuli/18.jpg,easy,"looks like a kite
",4,/Users/martincz/GitHub/COGS119/group_wi26_verbal_complexity/analysis/../data/raw_data/p09z5qk6x27_1772155536316.csv,lynx,"looks like a kite
",Male,Cognitive Behavioral Neuroscience,FALSE,18
11511,survey-text,18,15,890154,p09z5qk6x27,stimuli/2.jpg,easy,sharp dorito,2,/Users/martincz/GitHub/COGS119/group_wi26_verbal_complexity/analysis/../data/raw_data/p09z5qk6x27_1772155536316.csv,lynx,sharp dorito,Male,Cognitive Behavioral Neuroscience,FALSE,2
99157,survey-text,19,16,989316,p09z5qk6x27,stimuli/130.jpg,hard,"uneven and jagged, uneven and asymetrical",6,/Users/martincz/GitHub/COGS119/group_wi26_verbal_complexity/analysis/../data/raw_data/p09z5qk6x27_1772155536316.csv,lynx,"uneven and jagged, uneven and asymetrical",Male,Cognitive Behavioral Neuroscience,FALSE,130
70831,survey-text,20,17,1060152,p09z5qk6x27,stimuli/50.jpg,easy,gives me massachusetts vibes,4,/Users/martincz/GitHub/COGS119/group_wi26_verbal_complexity/analysis/../data/raw_data/p09z5qk6x27_1772155536316.csv,lynx,gives me massachusetts vibes,Male,Cognitive Behavioral Neuroscience,FALSE,50
134194,survey-text,21,18,1194352,p09z5qk6x27,stimuli/74.jpg,medium,"one side is flat with spikes sticking out and the other sides are almost making a pyramid but ones dented
",20,/Users/martincz/GitHub/COGS119/group_wi26_verbal_complexity/analysis/../data/raw_data/p09z5qk6x27_1772155536316.csv,lynx,"one side is flat with spikes sticking out and the other sides are almost making a pyramid but ones dented
",Male,Cognitive Behavioral Neuroscience,FALSE,74
37575,survey-text,22,19,1231932,p09z5qk6x27,stimuli/138.jpg,hard,"the right and top side look serated, the bottom left is flat",12,/Users/martincz/GitHub/COGS119/group_wi26_verbal_complexity/analysis/../data/raw_data/p09z5qk6x27_1772155536316.csv,lynx,"the right and top side look serated, the bottom left is flat",Male,Cognitive Behavioral Neuroscience,FALSE,138
34696,survey-text,23,20,1266632,p09z5qk6x27,stimuli/90.jpg,medium,"flat and 90 degrees on top right, the others sides are uneven and jagged
",14,/Users/martincz/GitHub/COGS119/group_wi26_verbal_complexity/analysis/../data/raw_data/p09z5qk6x27_1772155536316.csv,lynx,"flat and 90 degrees on top right, the others sides are uneven and jagged
",Male,Cognitive Behavioral Neuroscience,FALSE,90
8523,survey-text,4,1,33750,p0dapobkyam,stimuli/8.jpg,easy,rhombus,1,/Users/martincz/GitHub/COGS119/group_wi26_verbal_complexity/analysis/../data/raw_data/p0dapobkyam_1772139826984.csv,dolphin,rhombus ,Female,Cognitive and Behavioral Neuroscience,FALSE,8
10431,survey-text,5,2,44191,p0dapobkyam,stimuli/152.jpg,hard,"not a shape 
",3,/Users/martincz/GitHub/COGS119/group_wi26_verbal_complexity/analysis/../data/raw_data/p0dapobkyam_1772139826984.csv,dolphin,"not a shape 
",Female,Cognitive and Behavioral Neuroscience,FALSE,152
11657,survey-text,6,3,55856,p0dapobkyam,stimuli/16.jpg,easy,"triangle
",1,/Users/martincz/GitHub/COGS119/group_wi26_verbal_complexity/analysis/../data/raw_data/p0dapobkyam_1772139826984.csv,dolphin,"triangle
",Female,Cognitive and Behavioral Neuroscience,FALSE,16
19743,survey-text,7,4,75608,p0dapobkyam,stimuli/72.jpg,medium,"not a shape
",3,/Users/martincz/GitHub/COGS119/group_wi26_verbal_complexity/analysis/../data/raw_data/p0dapobkyam_1772139826984.csv,dolphin,"not a shape
",Female,Cognitive and Behavioral Neuroscience,FALSE,72
12357,survey-text,8,5,87973,p0dapobkyam,stimuli/24.jpg,easy,hexagon,1,/Users/martincz/GitHub/COGS119/group_wi26_verbal_complexity/analysis/../data/raw_data/p0dapobkyam_1772139826984.csv,dolphin,hexagon,Female,Cognitive and Behavioral Neuroscience,FALSE,24
18540,survey-text,9,6,106521,p0dapobkyam,stimuli/120.jpg,hard,not a shape,3,/Users/martincz/GitHub/COGS119/group_wi26_verbal_complexity/analysis/../data/raw_data/p0dapobkyam_1772139826984.csv,dolphin,not a shape,Female,Cognitive and Behavioral Neuroscience,FALSE,120
5794,survey-text,10,7,112324,p0dapobkyam,stimuli/64.jpg,medium,not a shape,3,/Users/martincz/GitHub/COGS119/group_wi26_verbal_complexity/analysis/../data/raw_data/p0dapobkyam_1772139826984.csv,dolphin,not a shape,Female,Cognitive and Behavioral Neuroscience,FALSE,64
11556,survey-text,11,8,123888,p0dapobkyam,stimuli/80.jpg,medium,lightning bolt,2,/Users/martincz/GitHub/COGS119/group_wi26_verbal_complexity/analysis/../data/raw_data/p0dapobkyam_1772139826984.csv,dolphin,lightning bolt,Female,Cognitive and Behavioral Neuroscience,FALSE,80
11543,survey-text,12,9,135441,p0dapobkyam,stimuli/144.jpg,hard,star,1,/Users/martincz/GitHub/COGS119/group_wi26_verbal_complexity/analysis/../data/raw_data/p0dapobkyam_1772139826984.csv,dolphin,star,Female,Cognitive and Behavioral Neuroscience,FALSE,144
13424,survey-text,13,10,148874,p0dapobkyam,stimuli/104.jpg,medium,"not a shape
",3,/Users/martincz/GitHub/COGS119/group_wi26_verbal_complexity/analysis/../data/raw_data/p0dapobkyam_1772139826984.csv,dolphin,"not a shape
",Female,Cognitive and Behavioral Neuroscience,FALSE,104
8322,survey-text,14,11,157203,p0dapobkyam,stimuli/48.jpg,easy,rectangle,1,/Users/martincz/GitHub/COGS119/group_wi26_verbal_complexity/analysis/../data/raw_data/p0dapobkyam_1772139826984.csv,dolphin,rectangle,Female,Cognitive and Behavioral Neuroscience,FALSE,48
6744,survey-text,15,12,163954,p0dapobkyam,stimuli/112.jpg,hard,"not a shape
",3,/Users/martincz/GitHub/COGS119/group_wi26_verbal_complexity/analysis/../data/raw_data/p0dapobkyam_1772139826984.csv,dolphin,"not a shape
",Female,Cognitive and Behavioral Neuroscience,FALSE,112
22028,survey-text,16,13,185989,p0dapobkyam,stimuli/88.jpg,medium,triangles and rectangles,3,/Users/martincz/GitHub/COGS119/group_wi26_verbal_complexity/analysis/../data/raw_data/p0dapobkyam_1772139826984.csv,dolphin,triangles and rectangles,Female,Cognitive and Behavioral Neuroscience,FALSE,88
17593,survey-text,17,14,203591,p0dapobkyam,stimuli/40.jpg,easy,"squares and triangles
",3,/Users/martincz/GitHub/COGS119/group_wi26_verbal_complexity/analysis/../data/raw_data/p0dapobkyam_1772139826984.csv,dolphin,"squares and triangles
",Female,Cognitive and Behavioral Neuroscience,FALSE,40
7406,survey-text,18,15,211005,p0dapobkyam,stimuli/136.jpg,hard,dragon shape,2,/Users/martincz/GitHub/COGS119/group_wi26_verbal_complexity/analysis/../data/raw_data/p0dapobkyam_1772139826984.csv,dolphin,dragon shape,Female,Cognitive and Behavioral Neuroscience,FALSE,136
14210,survey-text,19,16,225222,p0dapobkyam,stimuli/56.jpg,medium,square,1,/Users/martincz/GitHub/COGS119/group_wi26_verbal_complexity/analysis/../data/raw_data/p0dapobkyam_1772139826984.csv,dolphin,square,Female,Cognitive and Behavioral Neuroscience,FALSE,56
45159,survey-text,20,17,270387,p0dapobkyam,stimuli/160.jpg,hard,butterfly,1,/Users/martincz/GitHub/COGS119/group_wi26_verbal_complexity/analysis/../data/raw_data/p0dapobkyam_1772139826984.csv,dolphin,butterfly,Female,Cognitive and Behavioral Neuroscience,FALSE,160
13144,survey-text,21,18,283541,p0dapobkyam,stimuli/128.jpg,hard,"looks like a bird
",4,/Users/martincz/GitHub/COGS119/group_wi26_verbal_complexity/analysis/../data/raw_data/p0dapobkyam_1772139826984.csv,dolphin,"looks like a bird
",Female,Cognitive and Behavioral Neuroscience,FALSE,128
20840,survey-text,22,19,304389,p0dapobkyam,stimuli/96.jpg,medium,"a mix of triangles and squares
",6,/Users/martincz/GitHub/COGS119/group_wi26_verbal_complexity/analysis/../data/raw_data/p0dapobkyam_1772139826984.csv,dolphin,"a mix of triangles and squares
",Female,Cognitive and Behavioral Neuroscience,FALSE,96
8092,survey-text,23,20,312492,p0dapobkyam,stimuli/32.jpg,easy,paper plane,2,/Users/martincz/GitHub/COGS119/group_wi26_verbal_complexity/analysis/../data/raw_data/p0dapobkyam_1772139826984.csv,dolphin,paper plane,Female,Cognitive and Behavioral Neuroscience,FALSE,32
18985,survey-text,4,1,42746,p0ncqkt89ht,stimuli/17.jpg,easy,"5 sides, shaped like a triangle",6,/Users/martincz/GitHub/COGS119/group_wi26_verbal_complexity/analysis/../data/raw_data/p0ncqkt89ht_1772138743276.csv,elk,"5 sides, shaped like a triangle",Female,Cognitive Behavioral Neuroscience,FALSE,17
17348,survey-text,5,2,60120,p0ncqkt89ht,stimuli/129.jpg,hard,"looks like a leaf, lots of sides, polygon
",8,/Users/martincz/GitHub/COGS119/group_wi26_verbal_complexity/analysis/../data/raw_data/p0ncqkt89ht_1772138743276.csv,elk,"looks like a leaf, lots of sides, polygon
",Female,Cognitive Behavioral Neuroscience,FALSE,129
56419,survey-text,6,3,116564,p0ncqkt89ht,stimuli/41.jpg,easy,"looks like shoe, 11 sides
",5,/Users/martincz/GitHub/COGS119/group_wi26_verbal_complexity/analysis/../data/raw_data/p0ncqkt89ht_1772138743276.csv,elk,"looks like shoe, 11 sides
",Female,Cognitive Behavioral Neuroscience,FALSE,41
25303,survey-text,7,4,141893,p0ncqkt89ht,stimuli/73.jpg,medium,"looks like a paper crane
",5,/Users/martincz/GitHub/COGS119/group_wi26_verbal_complexity/analysis/../data/raw_data/p0ncqkt89ht_1772138743276.csv,elk,"looks like a paper crane
",Female,Cognitive Behavioral Neuroscience,FALSE,73
12959,survey-text,8,5,154873,p0ncqkt89ht,stimuli/137.jpg,hard,"looks like a dragon, lots of sides, some pointy edges
",10,/Users/martincz/GitHub/COGS119/group_wi26_verbal_complexity/analysis/../data/raw_data/p0ncqkt89ht_1772138743276.csv,elk,"looks like a dragon, lots of sides, some pointy edges
",Female,Cognitive Behavioral Neuroscience,FALSE,137
21436,survey-text,9,6,176330,p0ncqkt89ht,stimuli/153.jpg,hard,"lots of pointy edges, lots of sides",7,/Users/martincz/GitHub/COGS119/group_wi26_verbal_complexity/analysis/../data/raw_data/p0ncqkt89ht_1772138743276.csv,elk,"lots of pointy edges, lots of sides",Female,Cognitive Behavioral Neuroscience,FALSE,153
27079,survey-text,10,7,203428,p0ncqkt89ht,stimuli/89.jpg,medium,"16 sides, 7 pointy edges
",5,/Users/martincz/GitHub/COGS119/group_wi26_verbal_complexity/analysis/../data/raw_data/p0ncqkt89ht_1772138743276.csv,elk,"16 sides, 7 pointy edges
",Female,Cognitive Behavioral Neuroscience,FALSE,89
38361,survey-text,11,8,241806,p0ncqkt89ht,stimuli/121.jpg,hard,"lots of edges,",3,/Users/martincz/GitHub/COGS119/group_wi26_verbal_complexity/analysis/../data/raw_data/p0ncqkt89ht_1772138743276.csv,elk,"lots of edges, ",Female,Cognitive Behavioral Neuroscience,FALSE,121
31758,survey-text,12,9,273581,p0ncqkt89ht,stimuli/105.jpg,medium,"3 triangles, at least 2 squares",6,/Users/martincz/GitHub/COGS119/group_wi26_verbal_complexity/analysis/../data/raw_data/p0ncqkt89ht_1772138743276.csv,elk,"3 triangles, at least 2 squares",Female,Cognitive Behavioral Neuroscience,FALSE,105
8665,survey-text,13,10,282266,p0ncqkt89ht,stimuli/1.jpg,easy,"triangle, 3 sides, 3 angles",5,/Users/martincz/GitHub/COGS119/group_wi26_verbal_complexity/analysis/../data/raw_data/p0ncqkt89ht_1772138743276.csv,elk,"triangle, 3 sides, 3 angles",Female,Cognitive Behavioral Neuroscience,FALSE,1
43115,survey-text,14,11,325406,p0ncqkt89ht,stimuli/97.jpg,medium,"lots of edges, two triangles, trapezoids and squares",8,/Users/martincz/GitHub/COGS119/group_wi26_verbal_complexity/analysis/../data/raw_data/p0ncqkt89ht_1772138743276.csv,elk,"lots of edges, two triangles, trapezoids and squares ",Female,Cognitive Behavioral Neuroscience,FALSE,97
29409,survey-text,15,12,354833,p0ncqkt89ht,stimuli/25.jpg,easy,"1 triangel, 3 squares",4,/Users/martincz/GitHub/COGS119/group_wi26_verbal_complexity/analysis/../data/raw_data/p0ncqkt89ht_1772138743276.csv,elk,"1 triangel, 3 squares ",Female,Cognitive Behavioral Neuroscience,FALSE,25
14622,survey-text,16,13,369473,p0ncqkt89ht,stimuli/9.jpg,easy,"rectangle, 4 sides, 4 angles",5,/Users/martincz/GitHub/COGS119/group_wi26_verbal_complexity/analysis/../data/raw_data/p0ncqkt89ht_1772138743276.csv,elk,"rectangle, 4 sides, 4 angles",Female,Cognitive Behavioral Neuroscience,FALSE,9
17913,survey-text,17,14,387402,p0ncqkt89ht,stimuli/57.jpg,medium,"combination of triangles, squares",4,/Users/martincz/GitHub/COGS119/group_wi26_verbal_complexity/analysis/../data/raw_data/p0ncqkt89ht_1772138743276.csv,elk,"combination of triangles, squares ",Female,Cognitive Behavioral Neuroscience,FALSE,57
22012,survey-text,18,15,409429,p0ncqkt89ht,stimuli/33.jpg,easy,9 sides,2,/Users/martincz/GitHub/COGS119/group_wi26_verbal_complexity/analysis/../data/raw_data/p0ncqkt89ht_1772138743276.csv,elk,9 sides,Female,Cognitive Behavioral Neuroscience,FALSE,33
19216,survey-text,19,16,428662,p0ncqkt89ht,stimuli/113.jpg,hard,"lots of sides, one part looks like a crab claw",10,/Users/martincz/GitHub/COGS119/group_wi26_verbal_complexity/analysis/../data/raw_data/p0ncqkt89ht_1772138743276.csv,elk,"lots of sides, one part looks like a crab claw ",Female,Cognitive Behavioral Neuroscience,FALSE,113
50526,survey-text,20,17,479205,p0ncqkt89ht,stimuli/145.jpg,hard,"rounded edges in some parts, also pointed edges, looks like a few triangles and squares were cut out of the shape",21,/Users/martincz/GitHub/COGS119/group_wi26_verbal_complexity/analysis/../data/raw_data/p0ncqkt89ht_1772138743276.csv,elk,"rounded edges in some parts, also pointed edges, looks like a few triangles and squares were cut out of the shape",Female,Cognitive Behavioral Neuroscience,FALSE,145
28095,survey-text,21,18,507320,p0ncqkt89ht,stimuli/81.jpg,medium,looks like a lot of triangles stacked on each other,10,/Users/martincz/GitHub/COGS119/group_wi26_verbal_complexity/analysis/../data/raw_data/p0ncqkt89ht_1772138743276.csv,elk,looks like a lot of triangles stacked on each other,Female,Cognitive Behavioral Neuroscience,FALSE,81
18020,survey-text,22,19,525358,p0ncqkt89ht,stimuli/65.jpg,medium,"looks like a swan neck and head, triangles, and squares",10,/Users/martincz/GitHub/COGS119/group_wi26_verbal_complexity/analysis/../data/raw_data/p0ncqkt89ht_1772138743276.csv,elk,"looks like a swan neck and head, triangles, and squares",Female,Cognitive Behavioral Neuroscience,FALSE,65
33918,survey-text,23,20,559296,p0ncqkt89ht,stimuli/49.jpg,easy,"12 sides, triangles and rectangles
",5,/Users/martincz/GitHub/COGS119/group_wi26_verbal_complexity/analysis/../data/raw_data/p0ncqkt89ht_1772138743276.csv,elk,"12 sides, triangles and rectangles
",Female,Cognitive Behavioral Neuroscience,FALSE,49
42978,survey-text,4,1,80031,p0rhsmwrzdd,stimuli/113.jpg,hard,imagine like a really messed up crab with one arm pincer at the top left and two really wide pointy triangle legs,22,/Users/martincz/GitHub/COGS119/group_wi26_verbal_complexity/analysis/../data/raw_data/p0rhsmwrzdd_1772141316795.csv,wombat,imagine like a really messed up crab with one arm pincer at the top left and two really wide pointy triangle legs,Male,CogSci ML,TRUE,113
41900,survey-text,5,2,121931,p0rhsmwrzdd,stimuli/145.jpg,hard,A dragon/ dog mouth with two pointy ears and a big ole smile,13,/Users/martincz/GitHub/COGS119/group_wi26_verbal_complexity/analysis/../data/raw_data/p0rhsmwrzdd_1772141316795.csv,wombat,A dragon/ dog mouth with two pointy ears and a big ole smile ,Male,CogSci ML,TRUE,145
12133,survey-text,6,3,134064,p0rhsmwrzdd,stimuli/73.jpg,medium,A flowy dress with one shoulder-strap,6,/Users/martincz/GitHub/COGS119/group_wi26_verbal_complexity/analysis/../data/raw_data/p0rhsmwrzdd_1772141316795.csv,wombat,A flowy dress with one shoulder-strap,Male,CogSci ML,TRUE,73
33419,survey-text,7,4,167483,p0rhsmwrzdd,stimuli/49.jpg,easy,A quadrilateral with two more quadrilaterals cut out of the bottom,11,/Users/martincz/GitHub/COGS119/group_wi26_verbal_complexity/analysis/../data/raw_data/p0rhsmwrzdd_1772141316795.csv,wombat,A quadrilateral with two more quadrilaterals cut out of the bottom,Male,CogSci ML,TRUE,49
95900,survey-text,8,5,263382,p0rhsmwrzdd,stimuli/57.jpg,medium,a small puppy with a big head,7,/Users/martincz/GitHub/COGS119/group_wi26_verbal_complexity/analysis/../data/raw_data/p0rhsmwrzdd_1772141316795.csv,wombat,a small puppy with a big head,Male,CogSci ML,TRUE,57
16466,survey-text,9,6,279849,p0rhsmwrzdd,stimuli/105.jpg,medium,picasso's take on ferb from Phineas and ferb,8,/Users/martincz/GitHub/COGS119/group_wi26_verbal_complexity/analysis/../data/raw_data/p0rhsmwrzdd_1772141316795.csv,wombat,picasso's take on ferb from Phineas and ferb,Male,CogSci ML,TRUE,105
18849,survey-text,10,7,298699,p0rhsmwrzdd,stimuli/1.jpg,easy,"a right triangle, probably scalene",5,/Users/martincz/GitHub/COGS119/group_wi26_verbal_complexity/analysis/../data/raw_data/p0rhsmwrzdd_1772141316795.csv,wombat,"a right triangle, probably scalene",Male,CogSci ML,TRUE,1
71483,survey-text,11,8,370182,p0rhsmwrzdd,stimuli/121.jpg,hard,the letter 'H' but with very jagged edges and a fat left side,13,/Users/martincz/GitHub/COGS119/group_wi26_verbal_complexity/analysis/../data/raw_data/p0rhsmwrzdd_1772141316795.csv,wombat,the letter 'H' but with very jagged edges and a fat left side,Male,CogSci ML,TRUE,121
27200,survey-text,12,9,397382,p0rhsmwrzdd,stimuli/81.jpg,medium,like 6 different scalene triangles all put together,8,/Users/martincz/GitHub/COGS119/group_wi26_verbal_complexity/analysis/../data/raw_data/p0rhsmwrzdd_1772141316795.csv,wombat,like 6 different scalene triangles all put together,Male,CogSci ML,TRUE,81
15517,survey-text,13,10,412899,p0rhsmwrzdd,stimuli/97.jpg,medium,a dog or a small rodent with 4 legs and a big nose/muzzle,13,/Users/martincz/GitHub/COGS119/group_wi26_verbal_complexity/analysis/../data/raw_data/p0rhsmwrzdd_1772141316795.csv,wombat,a dog or a small rodent with 4 legs and a big nose/muzzle,Male,CogSci ML,TRUE,97
135736,survey-text,14,11,548634,p0rhsmwrzdd,stimuli/89.jpg,medium,an almost rotationally symmetrical figure with two triangular mouths,9,/Users/martincz/GitHub/COGS119/group_wi26_verbal_complexity/analysis/../data/raw_data/p0rhsmwrzdd_1772141316795.csv,wombat,an almost rotationally symmetrical figure with two triangular mouths,Male,CogSci ML,TRUE,89
11914,survey-text,15,12,560549,p0rhsmwrzdd,stimuli/17.jpg,easy,a pentagon pretending to be a triangle,7,/Users/martincz/GitHub/COGS119/group_wi26_verbal_complexity/analysis/../data/raw_data/p0rhsmwrzdd_1772141316795.csv,wombat,a pentagon pretending to be a triangle,Male,CogSci ML,TRUE,17
123221,survey-text,16,13,683770,p0rhsmwrzdd,stimuli/129.jpg,hard,the letter 'H' but distorted so it looks like a fish,11,/Users/martincz/GitHub/COGS119/group_wi26_verbal_complexity/analysis/../data/raw_data/p0rhsmwrzdd_1772141316795.csv,wombat,the letter 'H' but distorted so it looks like a fish,Male,CogSci ML,TRUE,129
151982,survey-text,17,14,835751,p0rhsmwrzdd,stimuli/65.jpg,medium,an 'F' that looks like a duck,7,/Users/martincz/GitHub/COGS119/group_wi26_verbal_complexity/analysis/../data/raw_data/p0rhsmwrzdd_1772141316795.csv,wombat,an 'F' that looks like a duck,Male,CogSci ML,TRUE,65
20034,survey-text,18,15,855787,p0rhsmwrzdd,stimuli/25.jpg,easy,a hexagon that looks like a pointy house or a chapel,11,/Users/martincz/GitHub/COGS119/group_wi26_verbal_complexity/analysis/../data/raw_data/p0rhsmwrzdd_1772141316795.csv,wombat,a hexagon that looks like a pointy house or a chapel,Male,CogSci ML,TRUE,25
9065,survey-text,19,16,864853,p0rhsmwrzdd,stimuli/41.jpg,easy,fish lips,2,/Users/martincz/GitHub/COGS119/group_wi26_verbal_complexity/analysis/../data/raw_data/p0rhsmwrzdd_1772141316795.csv,wombat,fish lips,Male,CogSci ML,TRUE,41
5763,survey-text,20,17,870618,p0rhsmwrzdd,stimuli/9.jpg,easy,a trapezoid,2,/Users/martincz/GitHub/COGS119/group_wi26_verbal_complexity/analysis/../data/raw_data/p0rhsmwrzdd_1772141316795.csv,wombat,a trapezoid,Male,CogSci ML,TRUE,9
98470,survey-text,21,18,969087,p0rhsmwrzdd,stimuli/137.jpg,hard,a cat on two legs holding up his really messed up arms,12,/Users/martincz/GitHub/COGS119/group_wi26_verbal_complexity/analysis/../data/raw_data/p0rhsmwrzdd_1772141316795.csv,wombat,a cat on two legs holding up his really messed up arms,Male,CogSci ML,TRUE,137
26465,survey-text,22,19,995553,p0rhsmwrzdd,stimuli/153.jpg,hard,an exploded house,3,/Users/martincz/GitHub/COGS119/group_wi26_verbal_complexity/analysis/../data/raw_data/p0rhsmwrzdd_1772141316795.csv,wombat,an exploded house,Male,CogSci ML,TRUE,153
19381,survey-text,23,20,1014935,p0rhsmwrzdd,stimuli/33.jpg,easy,a pentagon combined with a triangle at the bottom right,10,/Users/martincz/GitHub/COGS119/group_wi26_verbal_complexity/analysis/../data/raw_data/p0rhsmwrzdd_1772141316795.csv,wombat,a pentagon combined with a triangle at the bottom right,Male,CogSci ML,TRUE,33
46605,survey-text,4,1,63242,p2q02rm778m,stimuli/90.jpg,medium,"it looks like a narwhal with a horn, a curved body, and a tail. it also has a little ear and a spike on its back",26,/Users/martincz/GitHub/COGS119/group_wi26_verbal_complexity/analysis/../data/raw_data/p2q02rm778m_1772138520613.csv,horse,"it looks like a narwhal with a horn, a curved body, and a tail. it also has a little ear and a spike on its back",Female,business psychology and cognitive behavioral neuroscience,FALSE,90
46597,survey-text,5,2,109842,p2q02rm778m,stimuli/82.jpg,medium,"its roughly rectangle shaped, but with mostly jagged edges instead of straight lines",13,/Users/martincz/GitHub/COGS119/group_wi26_verbal_complexity/analysis/../data/raw_data/p2q02rm778m_1772138520613.csv,horse,"its roughly rectangle shaped, but with mostly jagged edges instead of straight lines",Female,business psychology and cognitive behavioral neuroscience,FALSE,82
35019,survey-text,6,3,144867,p2q02rm778m,stimuli/34.jpg,easy,"on the bottom three sides, it is rectangle shaped, but the top line is jagged with three peaks",18,/Users/martincz/GitHub/COGS119/group_wi26_verbal_complexity/analysis/../data/raw_data/p2q02rm778m_1772138520613.csv,horse,"on the bottom three sides, it is rectangle shaped, but the top line is jagged with three peaks",Female,business psychology and cognitive behavioral neuroscience,FALSE,34
36742,survey-text,7,4,181613,p2q02rm778m,stimuli/26.jpg,easy,it looks like a triangle with a triangle shaped bite taken out of the top,15,/Users/martincz/GitHub/COGS119/group_wi26_verbal_complexity/analysis/../data/raw_data/p2q02rm778m_1772138520613.csv,horse,it looks like a triangle with a triangle shaped bite taken out of the top,Female,business psychology and cognitive behavioral neuroscience,FALSE,26
48656,survey-text,8,5,230270,p2q02rm778m,stimuli/18.jpg,easy,it is a six sided shape that looks like the shape of a dirt baseball field. all 6 lines are straight,21,/Users/martincz/GitHub/COGS119/group_wi26_verbal_complexity/analysis/../data/raw_data/p2q02rm778m_1772138520613.csv,horse,it is a six sided shape that looks like the shape of a dirt baseball field. all 6 lines are straight,Female,business psychology and cognitive behavioral neuroscience,FALSE,18
62722,survey-text,9,6,292994,p2q02rm778m,stimuli/98.jpg,medium,it is roughly a rectangle attached to two triangles. kind of giving hammerhead shark,14,/Users/martincz/GitHub/COGS119/group_wi26_verbal_complexity/analysis/../data/raw_data/p2q02rm778m_1772138520613.csv,horse,it is roughly a rectangle attached to two triangles. kind of giving hammerhead shark,Female,business psychology and cognitive behavioral neuroscience,FALSE,98
64095,survey-text,10,7,357092,p2q02rm778m,stimuli/114.jpg,hard,it looks like a bird with crazy wings. the bottom is bird shaped with a beak and on top of it is a rectangle shaped wing and on top to the right is a wonky jagged wing,37,/Users/martincz/GitHub/COGS119/group_wi26_verbal_complexity/analysis/../data/raw_data/p2q02rm778m_1772138520613.csv,horse,it looks like a bird with crazy wings. the bottom is bird shaped with a beak and on top of it is a rectangle shaped wing and on top to the right is a wonky jagged wing,Female,business psychology and cognitive behavioral neuroscience,FALSE,114
66275,survey-text,11,8,423369,p2q02rm778m,stimuli/138.jpg,hard,"this shape has a lot of jagged, triangle shaped edges. there is a big triangle on the top and smaller triangles on the roughly square shaped bottom",27,/Users/martincz/GitHub/COGS119/group_wi26_verbal_complexity/analysis/../data/raw_data/p2q02rm778m_1772138520613.csv,horse,"this shape has a lot of jagged, triangle shaped edges. there is a big triangle on the top and smaller triangles on the roughly square shaped bottom",Female,business psychology and cognitive behavioral neuroscience,FALSE,138
68048,survey-text,12,9,491420,p2q02rm778m,stimuli/122.jpg,hard,"it has a jagged wide triangular base with three things coming out of the top. one of those is a triangle, and two are rectangle shaped",26,/Users/martincz/GitHub/COGS119/group_wi26_verbal_complexity/analysis/../data/raw_data/p2q02rm778m_1772138520613.csv,horse,"it has a jagged wide triangular base with three things coming out of the top. one of those is a triangle, and two are rectangle shaped",Female,business psychology and cognitive behavioral neuroscience,FALSE,122
42762,survey-text,13,10,534185,p2q02rm778m,stimuli/42.jpg,easy,the top is a pentagon and below is a 'leg' coming out of it that is roughly made of two triangles,21,/Users/martincz/GitHub/COGS119/group_wi26_verbal_complexity/analysis/../data/raw_data/p2q02rm778m_1772138520613.csv,horse,the top is a pentagon and below is a 'leg' coming out of it that is roughly made of two triangles,Female,business psychology and cognitive behavioral neuroscience,FALSE,42
86700,survey-text,14,11,620888,p2q02rm778m,stimuli/66.jpg,medium,it has 16 sides and is kinda giving parallelogram shape if the edges were triangles,15,/Users/martincz/GitHub/COGS119/group_wi26_verbal_complexity/analysis/../data/raw_data/p2q02rm778m_1772138520613.csv,horse,it has 16 sides and is kinda giving parallelogram shape if the edges were triangles,Female,business psychology and cognitive behavioral neuroscience,FALSE,66
41922,survey-text,15,12,662813,p2q02rm778m,stimuli/50.jpg,easy,it is shaped like a 7 if the top of the number was really thick,15,/Users/martincz/GitHub/COGS119/group_wi26_verbal_complexity/analysis/../data/raw_data/p2q02rm778m_1772138520613.csv,horse,it is shaped like a 7 if the top of the number was really thick,Female,business psychology and cognitive behavioral neuroscience,FALSE,50
40096,survey-text,16,13,702911,p2q02rm778m,stimuli/74.jpg,medium,it looks like a wolf head. it has a snout and three spikes coming from above that. and an ear above the neck,23,/Users/martincz/GitHub/COGS119/group_wi26_verbal_complexity/analysis/../data/raw_data/p2q02rm778m_1772138520613.csv,horse,it looks like a wolf head. it has a snout and three spikes coming from above that. and an ear above the neck,Female,business psychology and cognitive behavioral neuroscience,FALSE,74
53071,survey-text,17,14,755985,p2q02rm778m,stimuli/146.jpg,hard,"it kinda looks like a ghost with two arms, a whispy bottom body and a horizontal horn coming out of the head",22,/Users/martincz/GitHub/COGS119/group_wi26_verbal_complexity/analysis/../data/raw_data/p2q02rm778m_1772138520613.csv,horse,"it kinda looks like a ghost with two arms, a whispy bottom body and a horizontal horn coming out of the head",Female,business psychology and cognitive behavioral neuroscience,FALSE,146
68974,survey-text,18,15,824961,p2q02rm778m,stimuli/154.jpg,hard,"it has a wide bottom portion. and a taller portion on top of that, but only on the right side. the edges are very jagged",25,/Users/martincz/GitHub/COGS119/group_wi26_verbal_complexity/analysis/../data/raw_data/p2q02rm778m_1772138520613.csv,horse,"it has a wide bottom portion. and a taller portion on top of that, but only on the right side. the edges are very jagged",Female,business psychology and cognitive behavioral neuroscience,FALSE,154
44619,survey-text,19,16,869582,p2q02rm778m,stimuli/130.jpg,hard,it looks like a dog. there is a dog head and a front leg. the back leg is very wide and there is a short tail sticking straight up,29,/Users/martincz/GitHub/COGS119/group_wi26_verbal_complexity/analysis/../data/raw_data/p2q02rm778m_1772138520613.csv,horse,it looks like a dog. there is a dog head and a front leg. the back leg is very wide and there is a short tail sticking straight up,Female,business psychology and cognitive behavioral neuroscience,FALSE,130
89586,survey-text,20,17,959170,p2q02rm778m,stimuli/58.jpg,medium,"it is roughly triangular, like a wide triangle that has a bite take out of the base",17,/Users/martincz/GitHub/COGS119/group_wi26_verbal_complexity/analysis/../data/raw_data/p2q02rm778m_1772138520613.csv,horse,"it is roughly triangular, like a wide triangle that has a bite take out of the base",Female,business psychology and cognitive behavioral neuroscience,FALSE,58
26525,survey-text,21,18,985698,p2q02rm778m,stimuli/106.jpg,medium,it looks like a bird with a very fat tail and one leg sticking out in front of it,19,/Users/martincz/GitHub/COGS119/group_wi26_verbal_complexity/analysis/../data/raw_data/p2q02rm778m_1772138520613.csv,horse,it looks like a bird with a very fat tail and one leg sticking out in front of it,Female,business psychology and cognitive behavioral neuroscience,FALSE,106
32791,survey-text,22,19,1018491,p2q02rm778m,stimuli/10.jpg,easy,it is a quadrilateral with a shorter side on the left and sloped lines on the top and botton,19,/Users/martincz/GitHub/COGS119/group_wi26_verbal_complexity/analysis/../data/raw_data/p2q02rm778m_1772138520613.csv,horse,it is a quadrilateral with a shorter side on the left and sloped lines on the top and botton,Female,business psychology and cognitive behavioral neuroscience,FALSE,10
20107,survey-text,23,20,1038601,p2q02rm778m,stimuli/2.jpg,easy,it is an isosceles triangle pointing downwards,7,/Users/martincz/GitHub/COGS119/group_wi26_verbal_complexity/analysis/../data/raw_data/p2q02rm778m_1772138520613.csv,horse,it is an isosceles triangle pointing downwards ,Female,business psychology and cognitive behavioral neuroscience,FALSE,2
243427,survey-text,4,1,261192,p35wkqwct3u,stimuli/150.jpg,hard,"A shape with 30 sides, has lots of concave and convex angles, it is very abstract. It  has a main body, with small triangles taken out of the top, right, and bottom sides, and what looks like a small, vertical rectangle coming out of the bottom right corner. There is a dog-like silhouette shape that is cut out from upper left corner. It is the shape of the side profile of a dog landing after jumping through a hoop, i.e. facing slightly downwards with the front legs extended below it. The dog has small triangular ears. The cut out is only the first half of the dog.",107,/Users/martincz/GitHub/COGS119/group_wi26_verbal_complexity/analysis/../data/raw_data/p35wkqwct3u_1772139450482.csv,hedgehog,"A shape with 30 sides, has lots of concave and convex angles, it is very abstract. It  has a main body, with small triangles taken out of the top, right, and bottom sides, and what looks like a small, vertical rectangle coming out of the bottom right corner. There is a dog-like silhouette shape that is cut out from upper left corner. It is the shape of the side profile of a dog landing after jumping through a hoop, i.e. facing slightly downwards with the front legs extended below it. The dog has small triangular ears. The cut out is only the first half of the dog. ",Female,Cognitive Behavioral Neuroscience,FALSE,150
875064,survey-text,5,2,1136251,p35wkqwct3u,stimuli/158.jpg,hard,"A square if you cut out a bunch of shapes from it. From the bottom left corner, cut off a small 30-60-90 triangle, with the long side corresponding to the right side. Next to that cut out, cut out a trapezoid, where the bottom left of the trapezoid is right next to the bottom right of the previously cut out triangle. The trapezoid will be tall, with the parallel sides being vertical, with a slight right lean.  The long side (base) of the trapezoid extends from next to the first cut triangle up to the halfway point of the square. It should end to the left of the absolute middle of the square. The slanted side of the trapezoid extends back down south east, ending at the same height as the first cut triangle. Extend the next line parallel to the first side of the trapezoid all the way to the bottom. Then cut out a short, obtuse triangle directly to the right of the trapezoid, with the long side corresponding to the bottom edge of the square. This triangle should be the remaining bottom length of the square, and should come up below the top point of the first triangle. From the right side of the square, cut out two small rectangles at around the midline. From the top, split the cut outs to the left and right sides. From the left side, the top corner is cut off. From the right side, a large right triangle is cut out, another 30-60-90, with the hypotenuse being the top side, and the long side extending from the middle of the top side, south east, to meet the short side that starts at the right top corner of the square. From the middle of the long, adjacent side of that 30-60-90 triangle, cut a small obtuse triangle out of the center of the square, where one of the corners overlaps with the cutout of the 30-60-90 triangle. Overall, the shape is vaguely birdlike.",332,/Users/martincz/GitHub/COGS119/group_wi26_verbal_complexity/analysis/../data/raw_data/p35wkqwct3u_1772139450482.csv,hedgehog,"A square if you cut out a bunch of shapes from it. From the bottom left corner, cut off a small 30-60-90 triangle, with the long side corresponding to the right side. Next to that cut out, cut out a trapezoid, where the bottom left of the trapezoid is right next to the bottom right of the previously cut out triangle. The trapezoid will be tall, with the parallel sides being vertical, with a slight right lean.  The long side (base) of the trapezoid extends from next to the first cut triangle up to the halfway point of the square. It should end to the left of the absolute middle of the square. The slanted side of the trapezoid extends back down south east, ending at the same height as the first cut triangle. Extend the next line parallel to the first side of the trapezoid all the way to the bottom. Then cut out a short, obtuse triangle directly to the right of the trapezoid, with the long side corresponding to the bottom edge of the square. This triangle should be the remaining bottom length of the square, and should come up below the top point of the first triangle. From the right side of the square, cut out two small rectangles at around the midline. From the top, split the cut outs to the left and right sides. From the left side, the top corner is cut off. From the right side, a large right triangle is cut out, another 30-60-90, with the hypotenuse being the top side, and the long side extending from the middle of the top side, south east, to meet the short side that starts at the right top corner of the square. From the middle of the long, adjacent side of that 30-60-90 triangle, cut a small obtuse triangle out of the center of the square, where one of the corners overlaps with the cutout of the 30-60-90 triangle. Overall, the shape is vaguely birdlike. ",Female,Cognitive Behavioral Neuroscience,FALSE,158
79343,survey-text,6,3,1215597,p35wkqwct3u,stimuli/102.jpg,medium,"The shape looks like the head of a wrench that has the opening facing to the left. There are six faces on the inside of the ""wrench"". Extending from the top of the wrench is a triangle that makes it look like the wrench has a crest/horn.",47,/Users/martincz/GitHub/COGS119/group_wi26_verbal_complexity/analysis/../data/raw_data/p35wkqwct3u_1772139450482.csv,hedgehog,"The shape looks like the head of a wrench that has the opening facing to the left. There are six faces on the inside of the ""wrench"". Extending from the top of the wrench is a triangle that makes it look like the wrench has a crest/horn. ",Female,Cognitive Behavioral Neuroscience,FALSE,102
221076,survey-text,7,4,1436673,p35wkqwct3u,stimuli/70.jpg,medium,"This shape looks like a lopsided heart made with straight lines. The right side of the heart is skinnier, and the bottom edge follows a south-west trajectory that extends past the midline of the heart (thus lopsided heart that is leaning right). The left side of the heart is fatter and has a small knob that extends off the top of the left side. There is a left-facing hook on the bottom. It's pretty sharp and skinny with the end being a skinny triangle that extends past the left edge of the heart.",93,/Users/martincz/GitHub/COGS119/group_wi26_verbal_complexity/analysis/../data/raw_data/p35wkqwct3u_1772139450482.csv,hedgehog,"This shape looks like a lopsided heart made with straight lines. The right side of the heart is skinnier, and the bottom edge follows a south-west trajectory that extends past the midline of the heart (thus lopsided heart that is leaning right). The left side of the heart is fatter and has a small knob that extends off the top of the left side. There is a left-facing hook on the bottom. It's pretty sharp and skinny with the end being a skinny triangle that extends past the left edge of the heart. ",Female,Cognitive Behavioral Neuroscience,FALSE,70
192300,survey-text,8,5,1628974,p35wkqwct3u,stimuli/6.jpg,easy,"quadrilateral. the top side is perfectly horizontal. The right side extends down at a 92 degree angle and is about 1.5 times the length of the top side. The bottom side makes a 45 degree angle with the right side and extends in the north west direction, ending slightly past the vertical of the top line (more left than the leftmost point of the top line) The last line connects the top and bottom line, it is a small line extending in the North-north-east direction.",85,/Users/martincz/GitHub/COGS119/group_wi26_verbal_complexity/analysis/../data/raw_data/p35wkqwct3u_1772139450482.csv,hedgehog,"quadrilateral. the top side is perfectly horizontal. The right side extends down at a 92 degree angle and is about 1.5 times the length of the top side. The bottom side makes a 45 degree angle with the right side and extends in the north west direction, ending slightly past the vertical of the top line (more left than the leftmost point of the top line) The last line connects the top and bottom line, it is a small line extending in the North-north-east direction. ",Female,Cognitive Behavioral Neuroscience,FALSE,6
325026,survey-text,9,6,1954000,p35wkqwct3u,stimuli/110.jpg,hard,"Looks like a crude, poly outline of Bluey from that one TV show with angel wings. If  Bluey's bottom half/legs were just one rectangle. Bluey is facing to the left, so the corresponding rectangle is on the left side. The wings extend from halfway down the right side of the body, and is made of two shapes, an equilateral triangle and a diamond. One point of the equilateral triangle is intersecting with Bluey's rectangular body. The triangle is also slightly rotated to the right, so the next point on the triangle would point to the top right. This triangle point is cut off, like the top of the pyramid on the one-dollar bill. The last point of the triangle (the bottom-most one) is where the skinny diamond intersects, such that it's almost vertical, with a skinny end pointing towards the ground.",141,/Users/martincz/GitHub/COGS119/group_wi26_verbal_complexity/analysis/../data/raw_data/p35wkqwct3u_1772139450482.csv,hedgehog,"Looks like a crude, poly outline of Bluey from that one TV show with angel wings. If  Bluey's bottom half/legs were just one rectangle. Bluey is facing to the left, so the corresponding rectangle is on the left side. The wings extend from halfway down the right side of the body, and is made of two shapes, an equilateral triangle and a diamond. One point of the equilateral triangle is intersecting with Bluey's rectangular body. The triangle is also slightly rotated to the right, so the next point on the triangle would point to the top right. This triangle point is cut off, like the top of the pyramid on the one-dollar bill. The last point of the triangle (the bottom-most one) is where the skinny diamond intersects, such that it's almost vertical, with a skinny end pointing towards the ground.",Female,Cognitive Behavioral Neuroscience,FALSE,110
209972,survey-text,10,7,2163975,p35wkqwct3u,stimuli/86.jpg,medium,"the shape looks like lots of triangles. Start off with an ice cream cone. Put one equilateral triangle on top of that, and then add another triangle on either side of that first triangle. then have trapezoids extend down and out from those added triangles, next to the ice cream cone. Think anime hair. Should be fairly symmetrical. Then mess with it a little so it's not perfectly symmetrical, with the right side being bigger/hair-thing longer. Tilt the entire shape to the right.",83,/Users/martincz/GitHub/COGS119/group_wi26_verbal_complexity/analysis/../data/raw_data/p35wkqwct3u_1772139450482.csv,hedgehog,"the shape looks like lots of triangles. Start off with an ice cream cone. Put one equilateral triangle on top of that, and then add another triangle on either side of that first triangle. then have trapezoids extend down and out from those added triangles, next to the ice cream cone. Think anime hair. Should be fairly symmetrical. Then mess with it a little so it's not perfectly symmetrical, with the right side being bigger/hair-thing longer. Tilt the entire shape to the right.",Female,Cognitive Behavioral Neuroscience,FALSE,86
160564,survey-text,11,8,2324540,p35wkqwct3u,stimuli/38.jpg,easy,"Rectangle, but cut off most of the right side and tilt it upwards slightly. The remaining right side of the rectangle is hooked downwards, such that it looks like there is an obtuse triangle cut out from the remaining bottom right side of the rectangle, and the hook itself is an obtuse triangle with the long side being almost perfectly vertical with a slight left lean.",66,/Users/martincz/GitHub/COGS119/group_wi26_verbal_complexity/analysis/../data/raw_data/p35wkqwct3u_1772139450482.csv,hedgehog,"Rectangle, but cut off most of the right side and tilt it upwards slightly. The remaining right side of the rectangle is hooked downwards, such that it looks like there is an obtuse triangle cut out from the remaining bottom right side of the rectangle, and the hook itself is an obtuse triangle with the long side being almost perfectly vertical with a slight left lean. ",Female,Cognitive Behavioral Neuroscience,FALSE,38
134488,survey-text,12,9,2459030,p35wkqwct3u,stimuli/22.jpg,easy,"Take a knights banner, a tall rectangle with a triangle cut out from the bottom. Then pretend you are viewing it from above, where its still blowing in the wind. It should look like a lopsided square with an obtuse triangle cut out from the bottom.",46,/Users/martincz/GitHub/COGS119/group_wi26_verbal_complexity/analysis/../data/raw_data/p35wkqwct3u_1772139450482.csv,hedgehog,"Take a knights banner, a tall rectangle with a triangle cut out from the bottom. Then pretend you are viewing it from above, where its still blowing in the wind. It should look like a lopsided square with an obtuse triangle cut out from the bottom. ",Female,Cognitive Behavioral Neuroscience,FALSE,22
103363,survey-text,13,10,2562394,p35wkqwct3u,stimuli/94.jpg,medium,"Weird shape with 3 major obtrusions. The obtrusions have a counter-clockwise facing hook on the end, kinda like ninja stars. Except the fattest obtrusion splits its outside edge into two hooks, so one hook facing each direction",37,/Users/martincz/GitHub/COGS119/group_wi26_verbal_complexity/analysis/../data/raw_data/p35wkqwct3u_1772139450482.csv,hedgehog,"Weird shape with 3 major obtrusions. The obtrusions have a counter-clockwise facing hook on the end, kinda like ninja stars. Except the fattest obtrusion splits its outside edge into two hooks, so one hook facing each direction",Female,Cognitive Behavioral Neuroscience,FALSE,94
26538,survey-text,14,11,2588935,p35wkqwct3u,stimuli/14.jpg,easy,trapezoid with bottom left corner cut off slightly,8,/Users/martincz/GitHub/COGS119/group_wi26_verbal_complexity/analysis/../data/raw_data/p35wkqwct3u_1772139450482.csv,hedgehog,trapezoid with bottom left corner cut off slightly,Female,Cognitive Behavioral Neuroscience,FALSE,14
84664,survey-text,15,12,2673601,p35wkqwct3u,stimuli/118.jpg,hard,square body in the top left with a trapezoid cut out from the left side. Extend shape out to the right with two icicles extending down and one triangle extending up,31,/Users/martincz/GitHub/COGS119/group_wi26_verbal_complexity/analysis/../data/raw_data/p35wkqwct3u_1772139450482.csv,hedgehog,square body in the top left with a trapezoid cut out from the left side. Extend shape out to the right with two icicles extending down and one triangle extending up,Female,Cognitive Behavioral Neuroscience,FALSE,118
73169,survey-text,16,13,2746771,p35wkqwct3u,stimuli/126.jpg,hard,take a square and cut out a mermaid tail. ie the tail is somewhat in the middle of the square and the base is on the bottom side. Cut out a bunch of triangles from the rest of the sides. and a couple trapeziods,44,/Users/martincz/GitHub/COGS119/group_wi26_verbal_complexity/analysis/../data/raw_data/p35wkqwct3u_1772139450482.csv,hedgehog,take a square and cut out a mermaid tail. ie the tail is somewhat in the middle of the square and the base is on the bottom side. Cut out a bunch of triangles from the rest of the sides. and a couple trapeziods,Female,Cognitive Behavioral Neuroscience,FALSE,126
39496,survey-text,17,14,2786269,p35wkqwct3u,stimuli/62.jpg,medium,"fortune cookie type shape, so somewhat circular thing made with straight lines. then one crevice that starts from the right side.",21,/Users/martincz/GitHub/COGS119/group_wi26_verbal_complexity/analysis/../data/raw_data/p35wkqwct3u_1772139450482.csv,hedgehog,"fortune cookie type shape, so somewhat circular thing made with straight lines. then one crevice that starts from the right side. ",Female,Cognitive Behavioral Neuroscience,FALSE,62
81696,survey-text,18,15,2868035,p35wkqwct3u,stimuli/142.jpg,hard,"figure with two obtuse triangle feet (that kinda overlap), one rectangle arm on the right, one triangle arm on the left, and a square head, topped with a WIDE witch's hat. (stretch the sorting hat)",35,/Users/martincz/GitHub/COGS119/group_wi26_verbal_complexity/analysis/../data/raw_data/p35wkqwct3u_1772139450482.csv,hedgehog,"figure with two obtuse triangle feet (that kinda overlap), one rectangle arm on the right, one triangle arm on the left, and a square head, topped with a WIDE witch's hat. (stretch the sorting hat)",Female,Cognitive Behavioral Neuroscience,FALSE,142
74853,survey-text,19,16,2942891,p35wkqwct3u,stimuli/134.jpg,hard,"Take the block letter of 'M'. Attach a rectangle on the left side, and varaious triangles on the right. Cut out a small triangle from the inside edge of the right side of the M. Turn it 90 degrees clockwise so it's on the side.",45,/Users/martincz/GitHub/COGS119/group_wi26_verbal_complexity/analysis/../data/raw_data/p35wkqwct3u_1772139450482.csv,hedgehog,"Take the block letter of 'M'. Attach a rectangle on the left side, and varaious triangles on the right. Cut out a small triangle from the inside edge of the right side of the M. Turn it 90 degrees clockwise so it's on the side. ",Female,Cognitive Behavioral Neuroscience,FALSE,134
40777,survey-text,20,17,2983670,p35wkqwct3u,stimuli/30.jpg,easy,Looks like a very fat V that is not very deep. Almost like those softly curved water pitchers.,18,/Users/martincz/GitHub/COGS119/group_wi26_verbal_complexity/analysis/../data/raw_data/p35wkqwct3u_1772139450482.csv,hedgehog,Looks like a very fat V that is not very deep. Almost like those softly curved water pitchers. ,Female,Cognitive Behavioral Neuroscience,FALSE,30
128053,survey-text,21,18,3111726,p35wkqwct3u,stimuli/78.jpg,medium,"4 obtuse triangles mashed into each other. 
One in the middle has the long side facing up. There is one on top that also has the long side facing up, but it is smaller. There is one of the left that extends down (like a hook) from the left point of the middle triangle. One more triangle makes the base, but it is more of a large right triangle that has one adjacent side horizontal to the ground and attaches to the middle triangle with its top most point.",89,/Users/martincz/GitHub/COGS119/group_wi26_verbal_complexity/analysis/../data/raw_data/p35wkqwct3u_1772139450482.csv,hedgehog,"4 obtuse triangles mashed into each other. 
One in the middle has the long side facing up. There is one on top that also has the long side facing up, but it is smaller. There is one of the left that extends down (like a hook) from the left point of the middle triangle. One more triangle makes the base, but it is more of a large right triangle that has one adjacent side horizontal to the ground and attaches to the middle triangle with its top most point.",Female,Cognitive Behavioral Neuroscience,FALSE,78
5174,survey-text,22,19,3116902,p35wkqwct3u,stimuli/54.jpg,medium,ohio,1,/Users/martincz/GitHub/COGS119/group_wi26_verbal_complexity/analysis/../data/raw_data/p35wkqwct3u_1772139450482.csv,hedgehog,ohio,Female,Cognitive Behavioral Neuroscience,FALSE,54
35645,survey-text,23,20,3152549,p35wkqwct3u,stimuli/46.jpg,easy,take a square and cut out triangles from the bottom and right sides.,13,/Users/martincz/GitHub/COGS119/group_wi26_verbal_complexity/analysis/../data/raw_data/p35wkqwct3u_1772139450482.csv,hedgehog,take a square and cut out triangles from the bottom and right sides. ,Female,Cognitive Behavioral Neuroscience,FALSE,46
4171,survey-text,4,1,15626,p5npy6pcy3q,stimuli/4.jpg,easy,"tri
",1,/Users/martincz/GitHub/COGS119/group_wi26_verbal_complexity/analysis/../data/raw_data/p5npy6pcy3q_1772141802808.csv,frog,"tri
",Female,Cognitive Science,FALSE,4
5141,survey-text,5,2,20768,p5npy6pcy3q,stimuli/108.jpg,hard,shape,1,/Users/martincz/GitHub/COGS119/group_wi26_verbal_complexity/analysis/../data/raw_data/p5npy6pcy3q_1772141802808.csv,frog,shape,Female,Cognitive Science,FALSE,108
3348,survey-text,6,3,24118,p5npy6pcy3q,stimuli/44.jpg,easy,shape,1,/Users/martincz/GitHub/COGS119/group_wi26_verbal_complexity/analysis/../data/raw_data/p5npy6pcy3q_1772141802808.csv,frog,shape,Female,Cognitive Science,FALSE,44
2232,survey-text,7,4,26352,p5npy6pcy3q,stimuli/60.jpg,medium,shape,1,/Users/martincz/GitHub/COGS119/group_wi26_verbal_complexity/analysis/../data/raw_data/p5npy6pcy3q_1772141802808.csv,frog,shape,Female,Cognitive Science,FALSE,60
2015,survey-text,8,5,28368,p5npy6pcy3q,stimuli/100.jpg,medium,shape,1,/Users/martincz/GitHub/COGS119/group_wi26_verbal_complexity/analysis/../data/raw_data/p5npy6pcy3q_1772141802808.csv,frog,shape,Female,Cognitive Science,FALSE,100
1965,survey-text,9,6,30335,p5npy6pcy3q,stimuli/124.jpg,hard,shape,1,/Users/martincz/GitHub/COGS119/group_wi26_verbal_complexity/analysis/../data/raw_data/p5npy6pcy3q_1772141802808.csv,frog,shape,Female,Cognitive Science,FALSE,124
2166,survey-text,10,7,32502,p5npy6pcy3q,stimuli/52.jpg,easy,shape,1,/Users/martincz/GitHub/COGS119/group_wi26_verbal_complexity/analysis/../data/raw_data/p5npy6pcy3q_1772141802808.csv,frog,shape,Female,Cognitive Science,FALSE,52
2098,survey-text,11,8,34602,p5npy6pcy3q,stimuli/116.jpg,hard,shape,1,/Users/martincz/GitHub/COGS119/group_wi26_verbal_complexity/analysis/../data/raw_data/p5npy6pcy3q_1772141802808.csv,frog,shape,Female,Cognitive Science,FALSE,116
1848,survey-text,12,9,36452,p5npy6pcy3q,stimuli/92.jpg,medium,shape,1,/Users/martincz/GitHub/COGS119/group_wi26_verbal_complexity/analysis/../data/raw_data/p5npy6pcy3q_1772141802808.csv,frog,shape,Female,Cognitive Science,FALSE,92
8365,survey-text,13,10,44819,p5npy6pcy3q,stimuli/20.jpg,easy,almost square,2,/Users/martincz/GitHub/COGS119/group_wi26_verbal_complexity/analysis/../data/raw_data/p5npy6pcy3q_1772141802808.csv,frog,almost square,Female,Cognitive Science,FALSE,20
3549,survey-text,14,11,48369,p5npy6pcy3q,stimuli/36.jpg,easy,shape,1,/Users/martincz/GitHub/COGS119/group_wi26_verbal_complexity/analysis/../data/raw_data/p5npy6pcy3q_1772141802808.csv,frog,shape,Female,Cognitive Science,FALSE,36
2665,survey-text,15,12,51036,p5npy6pcy3q,stimuli/148.jpg,hard,shape,1,/Users/martincz/GitHub/COGS119/group_wi26_verbal_complexity/analysis/../data/raw_data/p5npy6pcy3q_1772141802808.csv,frog,shape,Female,Cognitive Science,FALSE,148
3582,survey-text,16,13,54619,p5npy6pcy3q,stimuli/68.jpg,medium,shape,1,/Users/martincz/GitHub/COGS119/group_wi26_verbal_complexity/analysis/../data/raw_data/p5npy6pcy3q_1772141802808.csv,frog,shape,Female,Cognitive Science,FALSE,68
8115,survey-text,17,14,62736,p5npy6pcy3q,stimuli/12.jpg,easy,almost triangle,2,/Users/martincz/GitHub/COGS119/group_wi26_verbal_complexity/analysis/../data/raw_data/p5npy6pcy3q_1772141802808.csv,frog,almost triangle,Female,Cognitive Science,FALSE,12
3181,survey-text,18,15,65919,p5npy6pcy3q,stimuli/132.jpg,hard,shape,1,/Users/martincz/GitHub/COGS119/group_wi26_verbal_complexity/analysis/../data/raw_data/p5npy6pcy3q_1772141802808.csv,frog,shape,Female,Cognitive Science,FALSE,132
4115,survey-text,19,16,70036,p5npy6pcy3q,stimuli/28.jpg,easy,pointer,1,/Users/martincz/GitHub/COGS119/group_wi26_verbal_complexity/analysis/../data/raw_data/p5npy6pcy3q_1772141802808.csv,frog,pointer,Female,Cognitive Science,FALSE,28
2748,survey-text,20,17,72786,p5npy6pcy3q,stimuli/84.jpg,medium,shape,1,/Users/martincz/GitHub/COGS119/group_wi26_verbal_complexity/analysis/../data/raw_data/p5npy6pcy3q_1772141802808.csv,frog,shape,Female,Cognitive Science,FALSE,84
2332,survey-text,21,18,75119,p5npy6pcy3q,stimuli/76.jpg,medium,shape,1,/Users/martincz/GitHub/COGS119/group_wi26_verbal_complexity/analysis/../data/raw_data/p5npy6pcy3q_1772141802808.csv,frog,shape,Female,Cognitive Science,FALSE,76
4316,survey-text,22,19,79436,p5npy6pcy3q,stimuli/156.jpg,hard,bird like,2,/Users/martincz/GitHub/COGS119/group_wi26_verbal_complexity/analysis/../data/raw_data/p5npy6pcy3q_1772141802808.csv,frog,bird like,Female,Cognitive Science,FALSE,156
2865,survey-text,23,20,82303,p5npy6pcy3q,stimuli/140.jpg,hard,shape,1,/Users/martincz/GitHub/COGS119/group_wi26_verbal_complexity/analysis/../data/raw_data/p5npy6pcy3q_1772141802808.csv,frog,shape,Female,Cognitive Science,FALSE,140
17730,survey-text,4,1,216024,p5xaudz7qwz,stimuli/67.jpg,medium,square with an arrow pointing out of it,8,/Users/martincz/GitHub/COGS119/group_wi26_verbal_complexity/analysis/../data/raw_data/p5xaudz7qwz_1772139802009.csv,deer,square with an arrow pointing out of it,Female,Cognitive Science,FALSE,67
16413,survey-text,5,2,232441,p5xaudz7qwz,stimuli/107.jpg,hard,Like a grenade that got cut around the edges,9,/Users/martincz/GitHub/COGS119/group_wi26_verbal_complexity/analysis/../data/raw_data/p5xaudz7qwz_1772139802009.csv,deer,Like a grenade that got cut around the edges,Female,Cognitive Science,FALSE,107
14379,survey-text,6,3,246824,p5xaudz7qwz,stimuli/147.jpg,hard,A little man dancing with a hat on,8,/Users/martincz/GitHub/COGS119/group_wi26_verbal_complexity/analysis/../data/raw_data/p5xaudz7qwz_1772139802009.csv,deer,A little man dancing with a hat on,Female,Cognitive Science,FALSE,147
11013,survey-text,7,4,257840,p5xaudz7qwz,stimuli/123.jpg,hard,"a fox head with very pointy ears
",7,/Users/martincz/GitHub/COGS119/group_wi26_verbal_complexity/analysis/../data/raw_data/p5xaudz7qwz_1772139802009.csv,deer,"a fox head with very pointy ears
",Female,Cognitive Science,FALSE,123
9281,survey-text,8,5,267125,p5xaudz7qwz,stimuli/131.jpg,hard,sonic the hedgehog,3,/Users/martincz/GitHub/COGS119/group_wi26_verbal_complexity/analysis/../data/raw_data/p5xaudz7qwz_1772139802009.csv,deer,sonic the hedgehog,Female,Cognitive Science,FALSE,131
23463,survey-text,9,6,290591,p5xaudz7qwz,stimuli/115.jpg,hard,like someone falling from a plane upside down,8,/Users/martincz/GitHub/COGS119/group_wi26_verbal_complexity/analysis/../data/raw_data/p5xaudz7qwz_1772139802009.csv,deer,like someone falling from a plane upside down,Female,Cognitive Science,FALSE,115
17813,survey-text,10,7,308408,p5xaudz7qwz,stimuli/91.jpg,medium,a square with an arrow cut into it,8,/Users/martincz/GitHub/COGS119/group_wi26_verbal_complexity/analysis/../data/raw_data/p5xaudz7qwz_1772139802009.csv,deer,a square with an arrow cut into it,Female,Cognitive Science,FALSE,91
9130,survey-text,11,8,317541,p5xaudz7qwz,stimuli/51.jpg,easy,a fish,2,/Users/martincz/GitHub/COGS119/group_wi26_verbal_complexity/analysis/../data/raw_data/p5xaudz7qwz_1772139802009.csv,deer,a fish,Female,Cognitive Science,FALSE,51
6730,survey-text,12,9,324274,p5xaudz7qwz,stimuli/35.jpg,easy,rectangle kinda,2,/Users/martincz/GitHub/COGS119/group_wi26_verbal_complexity/analysis/../data/raw_data/p5xaudz7qwz_1772139802009.csv,deer,rectangle kinda,Female,Cognitive Science,FALSE,35
3264,survey-text,13,10,327541,p5xaudz7qwz,stimuli/11.jpg,easy,diamond,1,/Users/martincz/GitHub/COGS119/group_wi26_verbal_complexity/analysis/../data/raw_data/p5xaudz7qwz_1772139802009.csv,deer,diamond,Female,Cognitive Science,FALSE,11
3114,survey-text,14,11,330658,p5xaudz7qwz,stimuli/3.jpg,easy,"triangle
",1,/Users/martincz/GitHub/COGS119/group_wi26_verbal_complexity/analysis/../data/raw_data/p5xaudz7qwz_1772139802009.csv,deer,"triangle
",Female,Cognitive Science,FALSE,3
13331,survey-text,15,12,343992,p5xaudz7qwz,stimuli/139.jpg,hard,wind up toy monkey,4,/Users/martincz/GitHub/COGS119/group_wi26_verbal_complexity/analysis/../data/raw_data/p5xaudz7qwz_1772139802009.csv,deer,wind up toy monkey,Female,Cognitive Science,FALSE,139
16697,survey-text,16,13,360692,p5xaudz7qwz,stimuli/27.jpg,easy,arrow sign upside down,4,/Users/martincz/GitHub/COGS119/group_wi26_verbal_complexity/analysis/../data/raw_data/p5xaudz7qwz_1772139802009.csv,deer,arrow sign upside down,Female,Cognitive Science,FALSE,27
72264,survey-text,17,14,432959,p5xaudz7qwz,stimuli/99.jpg,medium,A foldable lamp hanging down with SOMETHING hanging out of it,11,/Users/martincz/GitHub/COGS119/group_wi26_verbal_complexity/analysis/../data/raw_data/p5xaudz7qwz_1772139802009.csv,deer,A foldable lamp hanging down with SOMETHING hanging out of it,Female,Cognitive Science,FALSE,99
9764,survey-text,18,15,442725,p5xaudz7qwz,stimuli/43.jpg,easy,a gun thats slightly melted,5,/Users/martincz/GitHub/COGS119/group_wi26_verbal_complexity/analysis/../data/raw_data/p5xaudz7qwz_1772139802009.csv,deer,a gun thats slightly melted,Female,Cognitive Science,FALSE,43
8247,survey-text,19,16,450975,p5xaudz7qwz,stimuli/19.jpg,easy,a gun that isn't melted,5,/Users/martincz/GitHub/COGS119/group_wi26_verbal_complexity/analysis/../data/raw_data/p5xaudz7qwz_1772139802009.csv,deer,a gun that isn't melted,Female,Cognitive Science,FALSE,19
17382,survey-text,20,17,468359,p5xaudz7qwz,stimuli/83.jpg,medium,aang from avatar's head,4,/Users/martincz/GitHub/COGS119/group_wi26_verbal_complexity/analysis/../data/raw_data/p5xaudz7qwz_1772139802009.csv,deer,aang from avatar's head,Female,Cognitive Science,FALSE,83
5463,survey-text,21,18,473825,p5xaudz7qwz,stimuli/59.jpg,medium,the letter m,3,/Users/martincz/GitHub/COGS119/group_wi26_verbal_complexity/analysis/../data/raw_data/p5xaudz7qwz_1772139802009.csv,deer,the letter m,Female,Cognitive Science,FALSE,59
4997,survey-text,22,19,478826,p5xaudz7qwz,stimuli/75.jpg,medium,a flying bird,3,/Users/martincz/GitHub/COGS119/group_wi26_verbal_complexity/analysis/../data/raw_data/p5xaudz7qwz_1772139802009.csv,deer,a flying bird,Female,Cognitive Science,FALSE,75
26430,survey-text,23,20,505259,p5xaudz7qwz,stimuli/155.jpg,hard,a witch on a broomstick,5,/Users/martincz/GitHub/COGS119/group_wi26_verbal_complexity/analysis/../data/raw_data/p5xaudz7qwz_1772139802009.csv,deer,a witch on a broomstick,Female,Cognitive Science,FALSE,155
7317,survey-text,4,1,27600,p6jr3lbn8z7,stimuli/30.jpg,easy,pointy heart,2,/Users/martincz/GitHub/COGS119/group_wi26_verbal_complexity/analysis/../data/raw_data/p6jr3lbn8z7_1772139163612.csv,sheep,pointy heart,Female,psychology,FALSE,30
12667,survey-text,5,2,40272,p6jr3lbn8z7,stimuli/14.jpg,easy,lopsided pentagon,2,/Users/martincz/GitHub/COGS119/group_wi26_verbal_complexity/analysis/../data/raw_data/p6jr3lbn8z7_1772139163612.csv,sheep,lopsided pentagon,Female,psychology,FALSE,14
10512,survey-text,6,3,50789,p6jr3lbn8z7,stimuli/126.jpg,hard,crazy pointy bird,3,/Users/martincz/GitHub/COGS119/group_wi26_verbal_complexity/analysis/../data/raw_data/p6jr3lbn8z7_1772139163612.csv,sheep,crazy pointy bird,Female,psychology,FALSE,126
4281,survey-text,7,4,55078,p6jr3lbn8z7,stimuli/150.jpg,hard,rabbit,1,/Users/martincz/GitHub/COGS119/group_wi26_verbal_complexity/analysis/../data/raw_data/p6jr3lbn8z7_1772139163612.csv,sheep,rabbit,Female,psychology,FALSE,150
7355,survey-text,8,5,62439,p6jr3lbn8z7,stimuli/158.jpg,hard,pointy blob,2,/Users/martincz/GitHub/COGS119/group_wi26_verbal_complexity/analysis/../data/raw_data/p6jr3lbn8z7_1772139163612.csv,sheep,pointy blob,Female,psychology,FALSE,158
7381,survey-text,9,6,69828,p6jr3lbn8z7,stimuli/94.jpg,medium,blob,1,/Users/martincz/GitHub/COGS119/group_wi26_verbal_complexity/analysis/../data/raw_data/p6jr3lbn8z7_1772139163612.csv,sheep,blob,Female,psychology,FALSE,94
9739,survey-text,10,7,79576,p6jr3lbn8z7,stimuli/62.jpg,medium,gloved hand,2,/Users/martincz/GitHub/COGS119/group_wi26_verbal_complexity/analysis/../data/raw_data/p6jr3lbn8z7_1772139163612.csv,sheep,gloved hand,Female,psychology,FALSE,62
15341,survey-text,11,8,94927,p6jr3lbn8z7,stimuli/118.jpg,hard,"sideways bird, beak is the two identical points",8,/Users/martincz/GitHub/COGS119/group_wi26_verbal_complexity/analysis/../data/raw_data/p6jr3lbn8z7_1772139163612.csv,sheep,"sideways bird, beak is the two identical points",Female,psychology,FALSE,118
5273,survey-text,12,9,100210,p6jr3lbn8z7,stimuli/38.jpg,easy,weird blob,2,/Users/martincz/GitHub/COGS119/group_wi26_verbal_complexity/analysis/../data/raw_data/p6jr3lbn8z7_1772139163612.csv,sheep,weird blob,Female,psychology,FALSE,38
14025,survey-text,13,10,114241,p6jr3lbn8z7,stimuli/6.jpg,easy,"lopsided square, one edge is longer",6,/Users/martincz/GitHub/COGS119/group_wi26_verbal_complexity/analysis/../data/raw_data/p6jr3lbn8z7_1772139163612.csv,sheep,"lopsided square, one edge is longer",Female,psychology,FALSE,6
19961,survey-text,14,11,134209,p6jr3lbn8z7,stimuli/86.jpg,medium,"almost identical, spiderman-esque logo",4,/Users/martincz/GitHub/COGS119/group_wi26_verbal_complexity/analysis/../data/raw_data/p6jr3lbn8z7_1772139163612.csv,sheep,"almost identical, spiderman-esque logo",Female,psychology,FALSE,86
4258,survey-text,15,12,138477,p6jr3lbn8z7,stimuli/142.jpg,hard,witch on broom,3,/Users/martincz/GitHub/COGS119/group_wi26_verbal_complexity/analysis/../data/raw_data/p6jr3lbn8z7_1772139163612.csv,sheep,witch on broom,Female,psychology,FALSE,142
6442,survey-text,16,13,144928,p6jr3lbn8z7,stimuli/46.jpg,easy,someone has a long nose,5,/Users/martincz/GitHub/COGS119/group_wi26_verbal_complexity/analysis/../data/raw_data/p6jr3lbn8z7_1772139163612.csv,sheep,someone has a long nose,Female,psychology,FALSE,46
10007,survey-text,17,14,154944,p6jr3lbn8z7,stimuli/102.jpg,medium,someone is getting punched in the gut,7,/Users/martincz/GitHub/COGS119/group_wi26_verbal_complexity/analysis/../data/raw_data/p6jr3lbn8z7_1772139163612.csv,sheep,someone is getting punched in the gut,Female,psychology,FALSE,102
10208,survey-text,18,15,165160,p6jr3lbn8z7,stimuli/54.jpg,medium,arrow pointing down,3,/Users/martincz/GitHub/COGS119/group_wi26_verbal_complexity/analysis/../data/raw_data/p6jr3lbn8z7_1772139163612.csv,sheep,arrow pointing down,Female,psychology,FALSE,54
6425,survey-text,19,16,171594,p6jr3lbn8z7,stimuli/78.jpg,medium,pointy blob,2,/Users/martincz/GitHub/COGS119/group_wi26_verbal_complexity/analysis/../data/raw_data/p6jr3lbn8z7_1772139163612.csv,sheep,pointy blob,Female,psychology,FALSE,78
6308,survey-text,20,17,177911,p6jr3lbn8z7,stimuli/134.jpg,hard,lopsided blob,2,/Users/martincz/GitHub/COGS119/group_wi26_verbal_complexity/analysis/../data/raw_data/p6jr3lbn8z7_1772139163612.csv,sheep,lopsided blob,Female,psychology,FALSE,134
18891,survey-text,21,18,196810,p6jr3lbn8z7,stimuli/22.jpg,easy,"for courners, bent square",4,/Users/martincz/GitHub/COGS119/group_wi26_verbal_complexity/analysis/../data/raw_data/p6jr3lbn8z7_1772139163612.csv,sheep,"for courners, bent square",Female,psychology,FALSE,22
14759,survey-text,22,19,211577,p6jr3lbn8z7,stimuli/70.jpg,medium,floppy hat with one edge lifted up,7,/Users/martincz/GitHub/COGS119/group_wi26_verbal_complexity/analysis/../data/raw_data/p6jr3lbn8z7_1772139163612.csv,sheep,floppy hat with one edge lifted up,Female,psychology,FALSE,70
9457,survey-text,23,20,221039,p6jr3lbn8z7,stimuli/110.jpg,hard,dog with larger front legs,5,/Users/martincz/GitHub/COGS119/group_wi26_verbal_complexity/analysis/../data/raw_data/p6jr3lbn8z7_1772139163612.csv,sheep,dog with larger front legs,Female,psychology,FALSE,110
28740,survey-text,4,1,41245,p6st0wyc3pc,stimuli/100.jpg,medium,"phineas's head from phineas and ferb, looking downwards and hunched over with a rock on his back",17,/Users/martincz/GitHub/COGS119/group_wi26_verbal_complexity/analysis/../data/raw_data/p6st0wyc3pc_1772141852994.csv,crow,"phineas's head from phineas and ferb, looking downwards and hunched over with a rock on his back",Female,cognitive and behavioral neuroscience,FALSE,100
168348,survey-text,5,2,209593,p6st0wyc3pc,stimuli/84.jpg,medium,"start with a square. there is a big dipper shape cut out from the top, slightly slanted. on the left side, there are 3 bumps cut out like a mountain range, with the one at the top left the biggest with a flat surface at the peak. the middle one is narrow and pointy. the last one towards the bottom is a pointy and little wider and connected to the middle one. on the bottom, there is a small thin triangle cut out towards the bottom right, with one point of the triangle pointed upwards.",95,/Users/martincz/GitHub/COGS119/group_wi26_verbal_complexity/analysis/../data/raw_data/p6st0wyc3pc_1772141852994.csv,crow,"start with a square. there is a big dipper shape cut out from the top, slightly slanted. on the left side, there are 3 bumps cut out like a mountain range, with the one at the top left the biggest with a flat surface at the peak. the middle one is narrow and pointy. the last one towards the bottom is a pointy and little wider and connected to the middle one. on the bottom, there is a small thin triangle cut out towards the bottom right, with one point of the triangle pointed upwards.",Female,cognitive and behavioral neuroscience,FALSE,84
94383,survey-text,6,3,303976,p6st0wyc3pc,stimuli/68.jpg,medium,"rectangle that looks kinda like the state of washington. at the bottom edge in the middle, add a miniature state of nevada shape. at the top right, there is a thin trapezoid cut out, pretty small like 10% of the size of the overall shape, and it is pointing diagonally inwards towards the center.",54,/Users/martincz/GitHub/COGS119/group_wi26_verbal_complexity/analysis/../data/raw_data/p6st0wyc3pc_1772141852994.csv,crow,"rectangle that looks kinda like the state of washington. at the bottom edge in the middle, add a miniature state of nevada shape. at the top right, there is a thin trapezoid cut out, pretty small like 10% of the size of the overall shape, and it is pointing diagonally inwards towards the center.",Female,cognitive and behavioral neuroscience,FALSE,68
96032,survey-text,7,4,400008,p6st0wyc3pc,stimuli/148.jpg,hard,"a chicken or bird, with a head and pointy triangular beak pointed downwards at the top right. there is a feather sticking out of its head. moving to the left, there is a wide trapezoidal shape with a triangle cut out of it, sticking upwards as if it is the tail feathers of the bird. towards the bottom of the shape, are two triangles pointing left and right, like legs of an animal.",73,/Users/martincz/GitHub/COGS119/group_wi26_verbal_complexity/analysis/../data/raw_data/p6st0wyc3pc_1772141852994.csv,crow,"a chicken or bird, with a head and pointy triangular beak pointed downwards at the top right. there is a feather sticking out of its head. moving to the left, there is a wide trapezoidal shape with a triangle cut out of it, sticking upwards as if it is the tail feathers of the bird. towards the bottom of the shape, are two triangles pointing left and right, like legs of an animal.",Female,cognitive and behavioral neuroscience,FALSE,148
95165,survey-text,8,5,495174,p6st0wyc3pc,stimuli/60.jpg,medium,"square with a big triangle cut out from the left side, and a smaller one cut out from the bottom towards the left. on the top right, the corner is cut out, with an angle of about 135 degrees. at the top side of the square is another small cut out isoceles triangle.",53,/Users/martincz/GitHub/COGS119/group_wi26_verbal_complexity/analysis/../data/raw_data/p6st0wyc3pc_1772141852994.csv,crow,"square with a big triangle cut out from the left side, and a smaller one cut out from the bottom towards the left. on the top right, the corner is cut out, with an angle of about 135 degrees. at the top side of the square is another small cut out isoceles triangle.",Female,cognitive and behavioral neuroscience,FALSE,60
26233,survey-text,9,6,521407,p6st0wyc3pc,stimuli/116.jpg,hard,"a rectangle with a bunch of trapezoid tumors sticking out of it. There are two on the right, one on the bottom, and a small one on the left.",29,/Users/martincz/GitHub/COGS119/group_wi26_verbal_complexity/analysis/../data/raw_data/p6st0wyc3pc_1772141852994.csv,crow,"a rectangle with a bunch of trapezoid tumors sticking out of it. There are two on the right, one on the bottom, and a small one on the left.",Female,cognitive and behavioral neuroscience,FALSE,116
33814,survey-text,10,7,555223,p6st0wyc3pc,stimuli/92.jpg,medium,"a character from my little pony's side profile, facing to the left. It has a horn and a fat snout",20,/Users/martincz/GitHub/COGS119/group_wi26_verbal_complexity/analysis/../data/raw_data/p6st0wyc3pc_1772141852994.csv,crow,"a character from my little pony's side profile, facing to the left. It has a horn and a fat snout",Female,cognitive and behavioral neuroscience,FALSE,92
6833,survey-text,11,8,562057,p6st0wyc3pc,stimuli/28.jpg,easy,a spear shape pointing towards the top right,8,/Users/martincz/GitHub/COGS119/group_wi26_verbal_complexity/analysis/../data/raw_data/p6st0wyc3pc_1772141852994.csv,crow,a spear shape pointing towards the top right,Female,cognitive and behavioral neuroscience,FALSE,28
22965,survey-text,12,9,585023,p6st0wyc3pc,stimuli/36.jpg,easy,"a diamond with the bottom cut flat, pointed up towards the right. it is combined with a triangle on the right side.",22,/Users/martincz/GitHub/COGS119/group_wi26_verbal_complexity/analysis/../data/raw_data/p6st0wyc3pc_1772141852994.csv,crow,"a diamond with the bottom cut flat, pointed up towards the right. it is combined with a triangle on the right side.",Female,cognitive and behavioral neuroscience,FALSE,36
19298,survey-text,13,10,604322,p6st0wyc3pc,stimuli/20.jpg,easy,"a police badge slanted to the right, with the left side cut a bit more sharply",16,/Users/martincz/GitHub/COGS119/group_wi26_verbal_complexity/analysis/../data/raw_data/p6st0wyc3pc_1772141852994.csv,crow,"a police badge slanted to the right, with the left side cut a bit more sharply",Female,cognitive and behavioral neuroscience,FALSE,20
41683,survey-text,14,11,646006,p6st0wyc3pc,stimuli/76.jpg,medium,a square. bottom side has a big triangle cut upwards. top right has a square cut out. the left side has a trapezoid combined with a triangle cut out of it,31,/Users/martincz/GitHub/COGS119/group_wi26_verbal_complexity/analysis/../data/raw_data/p6st0wyc3pc_1772141852994.csv,crow,a square. bottom side has a big triangle cut upwards. top right has a square cut out. the left side has a trapezoid combined with a triangle cut out of it,Female,cognitive and behavioral neuroscience,FALSE,76
25515,survey-text,15,12,671522,p6st0wyc3pc,stimuli/156.jpg,hard,"a wiggly shape with 4 main sections. it looks like an S shape vaguely, if the S was laying on its side",22,/Users/martincz/GitHub/COGS119/group_wi26_verbal_complexity/analysis/../data/raw_data/p6st0wyc3pc_1772141852994.csv,crow,"a wiggly shape with 4 main sections. it looks like an S shape vaguely, if the S was laying on its side",Female,cognitive and behavioral neuroscience,FALSE,156
12799,survey-text,16,13,684322,p6st0wyc3pc,stimuli/132.jpg,hard,a shape with a bunch of triangles cut out of it. jagged edges,13,/Users/martincz/GitHub/COGS119/group_wi26_verbal_complexity/analysis/../data/raw_data/p6st0wyc3pc_1772141852994.csv,crow,a shape with a bunch of triangles cut out of it. jagged edges,Female,cognitive and behavioral neuroscience,FALSE,132
15315,survey-text,17,14,699639,p6st0wyc3pc,stimuli/52.jpg,easy,flat on the top side. bottom side has triangle and rectangle cut out,13,/Users/martincz/GitHub/COGS119/group_wi26_verbal_complexity/analysis/../data/raw_data/p6st0wyc3pc_1772141852994.csv,crow,flat on the top side. bottom side has triangle and rectangle cut out,Female,cognitive and behavioral neuroscience,FALSE,52
8282,survey-text,18,15,707922,p6st0wyc3pc,stimuli/12.jpg,easy,trapezoid,1,/Users/martincz/GitHub/COGS119/group_wi26_verbal_complexity/analysis/../data/raw_data/p6st0wyc3pc_1772141852994.csv,crow,trapezoid,Female,cognitive and behavioral neuroscience,FALSE,12
31531,survey-text,19,16,739455,p6st0wyc3pc,stimuli/140.jpg,hard,man curved over towards the right doing the fent lean with his arms danging over his head at a ninety degree angle,22,/Users/martincz/GitHub/COGS119/group_wi26_verbal_complexity/analysis/../data/raw_data/p6st0wyc3pc_1772141852994.csv,crow,man curved over towards the right doing the fent lean with his arms danging over his head at a ninety degree angle,Female,cognitive and behavioral neuroscience,FALSE,140
12849,survey-text,20,17,752304,p6st0wyc3pc,stimuli/44.jpg,easy,rectangle with a sharp triangle pointing out of the right side,11,/Users/martincz/GitHub/COGS119/group_wi26_verbal_complexity/analysis/../data/raw_data/p6st0wyc3pc_1772141852994.csv,crow,rectangle with a sharp triangle pointing out of the right side,Female,cognitive and behavioral neuroscience,FALSE,44
11548,survey-text,21,18,763854,p6st0wyc3pc,stimuli/108.jpg,hard,a jagged square that was pinched in the middle,9,/Users/martincz/GitHub/COGS119/group_wi26_verbal_complexity/analysis/../data/raw_data/p6st0wyc3pc_1772141852994.csv,crow,a jagged square that was pinched in the middle,Female,cognitive and behavioral neuroscience,FALSE,108
16149,survey-text,22,19,780005,p6st0wyc3pc,stimuli/124.jpg,hard,pointy spear looking thing with a trapezoid cut out of the top right and middle right,16,/Users/martincz/GitHub/COGS119/group_wi26_verbal_complexity/analysis/../data/raw_data/p6st0wyc3pc_1772141852994.csv,crow,pointy spear looking thing with a trapezoid cut out of the top right and middle right,Female,cognitive and behavioral neuroscience,FALSE,124
2830,survey-text,23,20,782838,p6st0wyc3pc,stimuli/4.jpg,easy,triangle,1,/Users/martincz/GitHub/COGS119/group_wi26_verbal_complexity/analysis/../data/raw_data/p6st0wyc3pc_1772141852994.csv,crow,triangle,Female,cognitive and behavioral neuroscience,FALSE,4
4401,survey-text,4,1,13686,p8645ntz1nz,stimuli/146.jpg,hard,picasso,1,/Users/martincz/GitHub/COGS119/group_wi26_verbal_complexity/analysis/../data/raw_data/p8645ntz1nz_1772139631998.csv,goat,picasso,Female,cognitive science,FALSE,146
10196,survey-text,5,2,23885,p8645ntz1nz,stimuli/130.jpg,hard,"angular, boxy, spikey",3,/Users/martincz/GitHub/COGS119/group_wi26_verbal_complexity/analysis/../data/raw_data/p8645ntz1nz_1772139631998.csv,goat,"angular, boxy, spikey",Female,cognitive science,FALSE,130
7930,survey-text,6,3,31818,p8645ntz1nz,stimuli/90.jpg,medium,"spikey, sharp",2,/Users/martincz/GitHub/COGS119/group_wi26_verbal_complexity/analysis/../data/raw_data/p8645ntz1nz_1772139631998.csv,goat,"spikey, sharp",Female,cognitive science,FALSE,90
10832,survey-text,7,4,42653,p8645ntz1nz,stimuli/18.jpg,easy,almost trapezoid,2,/Users/martincz/GitHub/COGS119/group_wi26_verbal_complexity/analysis/../data/raw_data/p8645ntz1nz_1772139631998.csv,goat,almost trapezoid,Female,cognitive science,FALSE,18
11263,survey-text,8,5,53918,p8645ntz1nz,stimuli/122.jpg,hard,scary and spikey,3,/Users/martincz/GitHub/COGS119/group_wi26_verbal_complexity/analysis/../data/raw_data/p8645ntz1nz_1772139631998.csv,goat,scary and spikey,Female,cognitive science,FALSE,122
2799,survey-text,9,6,56720,p8645ntz1nz,stimuli/2.jpg,easy,triangle,1,/Users/martincz/GitHub/COGS119/group_wi26_verbal_complexity/analysis/../data/raw_data/p8645ntz1nz_1772139631998.csv,goat,triangle,Female,cognitive science,FALSE,2
11113,survey-text,10,7,67836,p8645ntz1nz,stimuli/26.jpg,easy,somethings wrong,2,/Users/martincz/GitHub/COGS119/group_wi26_verbal_complexity/analysis/../data/raw_data/p8645ntz1nz_1772139631998.csv,goat,somethings wrong,Female,cognitive science,FALSE,26
9514,survey-text,11,8,77352,p8645ntz1nz,stimuli/66.jpg,medium,kinda looks like a spikey bird,6,/Users/martincz/GitHub/COGS119/group_wi26_verbal_complexity/analysis/../data/raw_data/p8645ntz1nz_1772139631998.csv,goat,kinda looks like a spikey bird,Female,cognitive science,FALSE,66
61497,survey-text,12,9,138854,p8645ntz1nz,stimuli/42.jpg,easy,looks like it was a shape and then it got messed up in photoshop,14,/Users/martincz/GitHub/COGS119/group_wi26_verbal_complexity/analysis/../data/raw_data/p8645ntz1nz_1772139631998.csv,goat,looks like it was a shape and then it got messed up in photoshop,Female,cognitive science,FALSE,42
10566,survey-text,13,10,149422,p8645ntz1nz,stimuli/114.jpg,hard,bird flying into the ground but spikey,7,/Users/martincz/GitHub/COGS119/group_wi26_verbal_complexity/analysis/../data/raw_data/p8645ntz1nz_1772139631998.csv,goat,bird flying into the ground but spikey,Female,cognitive science,FALSE,114
10429,survey-text,14,11,159854,p8645ntz1nz,stimuli/98.jpg,medium,looks like a spikey bullet,5,/Users/martincz/GitHub/COGS119/group_wi26_verbal_complexity/analysis/../data/raw_data/p8645ntz1nz_1772139631998.csv,goat,looks like a spikey bullet,Female,cognitive science,FALSE,98
5316,survey-text,15,12,165172,p8645ntz1nz,stimuli/50.jpg,easy,flag but off,3,/Users/martincz/GitHub/COGS119/group_wi26_verbal_complexity/analysis/../data/raw_data/p8645ntz1nz_1772139631998.csv,goat,flag but off,Female,cognitive science,FALSE,50
7631,survey-text,16,13,172806,p8645ntz1nz,stimuli/154.jpg,hard,looks like it could be a country,7,/Users/martincz/GitHub/COGS119/group_wi26_verbal_complexity/analysis/../data/raw_data/p8645ntz1nz_1772139631998.csv,goat,looks like it could be a country,Female,cognitive science,FALSE,154
9713,survey-text,17,14,182522,p8645ntz1nz,stimuli/106.jpg,medium,looks like the thing on the soviet flag,8,/Users/martincz/GitHub/COGS119/group_wi26_verbal_complexity/analysis/../data/raw_data/p8645ntz1nz_1772139631998.csv,goat,looks like the thing on the soviet flag,Female,cognitive science,FALSE,106
6365,survey-text,18,15,188889,p8645ntz1nz,stimuli/58.jpg,medium,"another country
",2,/Users/martincz/GitHub/COGS119/group_wi26_verbal_complexity/analysis/../data/raw_data/p8645ntz1nz_1772139631998.csv,goat,"another country
",Female,cognitive science,FALSE,58
7997,survey-text,19,16,196888,p8645ntz1nz,stimuli/10.jpg,easy,quadrilateral,1,/Users/martincz/GitHub/COGS119/group_wi26_verbal_complexity/analysis/../data/raw_data/p8645ntz1nz_1772139631998.csv,goat,quadrilateral ,Female,cognitive science,FALSE,10
4983,survey-text,20,17,201873,p8645ntz1nz,stimuli/82.jpg,medium,country,1,/Users/martincz/GitHub/COGS119/group_wi26_verbal_complexity/analysis/../data/raw_data/p8645ntz1nz_1772139631998.csv,goat,country,Female,cognitive science,FALSE,82
7131,survey-text,21,18,209007,p8645ntz1nz,stimuli/138.jpg,hard,jagged,1,/Users/martincz/GitHub/COGS119/group_wi26_verbal_complexity/analysis/../data/raw_data/p8645ntz1nz_1772139631998.csv,goat,jagged,Female,cognitive science,FALSE,138
4431,survey-text,22,19,213439,p8645ntz1nz,stimuli/74.jpg,medium,spikey,1,/Users/martincz/GitHub/COGS119/group_wi26_verbal_complexity/analysis/../data/raw_data/p8645ntz1nz_1772139631998.csv,goat,spikey,Female,cognitive science,FALSE,74
10215,survey-text,23,20,223656,p8645ntz1nz,stimuli/34.jpg,easy,like if a child tried to draw a mountain,9,/Users/martincz/GitHub/COGS119/group_wi26_verbal_complexity/analysis/../data/raw_data/p8645ntz1nz_1772139631998.csv,goat,like if a child tried to draw a mountain,Female,cognitive science,FALSE,34
12595,survey-text,4,1,28711,p8my8vj8re7,stimuli/112.jpg,hard,qbert,1,/Users/martincz/GitHub/COGS119/group_wi26_verbal_complexity/analysis/../data/raw_data/p8my8vj8re7_1772138789380.csv,bear,qbert,Female,cognitive science,FALSE,112
5891,survey-text,5,2,34604,p8my8vj8re7,stimuli/136.jpg,hard,spider,1,/Users/martincz/GitHub/COGS119/group_wi26_verbal_complexity/analysis/../data/raw_data/p8my8vj8re7_1772138789380.csv,bear,spider,Female,cognitive science,FALSE,136
3534,survey-text,6,3,38142,p8my8vj8re7,stimuli/120.jpg,hard,fish,1,/Users/martincz/GitHub/COGS119/group_wi26_verbal_complexity/analysis/../data/raw_data/p8my8vj8re7_1772138789380.csv,bear,fish,Female,cognitive science,FALSE,120
11213,survey-text,7,4,49358,p8my8vj8re7,stimuli/32.jpg,easy,inverted star,2,/Users/martincz/GitHub/COGS119/group_wi26_verbal_complexity/analysis/../data/raw_data/p8my8vj8re7_1772138789380.csv,bear,inverted star,Female,cognitive science,FALSE,32
9277,survey-text,8,5,58637,p8my8vj8re7,stimuli/80.jpg,medium,bird,1,/Users/martincz/GitHub/COGS119/group_wi26_verbal_complexity/analysis/../data/raw_data/p8my8vj8re7_1772138789380.csv,bear,bird,Female,cognitive science,FALSE,80
3992,survey-text,9,6,62632,p8my8vj8re7,stimuli/96.jpg,medium,bat,1,/Users/martincz/GitHub/COGS119/group_wi26_verbal_complexity/analysis/../data/raw_data/p8my8vj8re7_1772138789380.csv,bear,bat,Female,cognitive science,FALSE,96
5529,survey-text,10,7,68163,p8my8vj8re7,stimuli/16.jpg,easy,chip,1,/Users/martincz/GitHub/COGS119/group_wi26_verbal_complexity/analysis/../data/raw_data/p8my8vj8re7_1772138789380.csv,bear,chip,Female,cognitive science,FALSE,16
15768,survey-text,11,8,83932,p8my8vj8re7,stimuli/40.jpg,easy,comb,1,/Users/martincz/GitHub/COGS119/group_wi26_verbal_complexity/analysis/../data/raw_data/p8my8vj8re7_1772138789380.csv,bear,comb,Female,cognitive science,FALSE,40
4104,survey-text,12,9,88039,p8my8vj8re7,stimuli/24.jpg,easy,shield,1,/Users/martincz/GitHub/COGS119/group_wi26_verbal_complexity/analysis/../data/raw_data/p8my8vj8re7_1772138789380.csv,bear,shield,Female,cognitive science,FALSE,24
13742,survey-text,13,10,101783,p8my8vj8re7,stimuli/152.jpg,hard,mouse,1,/Users/martincz/GitHub/COGS119/group_wi26_verbal_complexity/analysis/../data/raw_data/p8my8vj8re7_1772138789380.csv,bear,mouse,Female,cognitive science,FALSE,152
4178,survey-text,14,11,105964,p8my8vj8re7,stimuli/128.jpg,hard,bird,1,/Users/martincz/GitHub/COGS119/group_wi26_verbal_complexity/analysis/../data/raw_data/p8my8vj8re7_1772138789380.csv,bear,bird,Female,cognitive science,FALSE,128
3079,survey-text,15,12,109046,p8my8vj8re7,stimuli/56.jpg,medium,lemon,1,/Users/martincz/GitHub/COGS119/group_wi26_verbal_complexity/analysis/../data/raw_data/p8my8vj8re7_1772138789380.csv,bear,lemon,Female,cognitive science,FALSE,56
3530,survey-text,16,13,112577,p8my8vj8re7,stimuli/160.jpg,hard,squirrel,1,/Users/martincz/GitHub/COGS119/group_wi26_verbal_complexity/analysis/../data/raw_data/p8my8vj8re7_1772138789380.csv,bear,squirrel,Female,cognitive science,FALSE,160
5775,survey-text,17,14,118354,p8my8vj8re7,stimuli/144.jpg,hard,crab,1,/Users/martincz/GitHub/COGS119/group_wi26_verbal_complexity/analysis/../data/raw_data/p8my8vj8re7_1772138789380.csv,bear,crab,Female,cognitive science,FALSE,144
4659,survey-text,18,15,123016,p8my8vj8re7,stimuli/104.jpg,medium,dinosaur,1,/Users/martincz/GitHub/COGS119/group_wi26_verbal_complexity/analysis/../data/raw_data/p8my8vj8re7_1772138789380.csv,bear,dinosaur,Female,cognitive science,FALSE,104
3071,survey-text,19,16,126090,p8my8vj8re7,stimuli/88.jpg,medium,whale,1,/Users/martincz/GitHub/COGS119/group_wi26_verbal_complexity/analysis/../data/raw_data/p8my8vj8re7_1772138789380.csv,bear,whale,Female,cognitive science,FALSE,88
3460,survey-text,20,17,129552,p8my8vj8re7,stimuli/72.jpg,medium,wolf,1,/Users/martincz/GitHub/COGS119/group_wi26_verbal_complexity/analysis/../data/raw_data/p8my8vj8re7_1772138789380.csv,bear,wolf,Female,cognitive science,FALSE,72
5003,survey-text,21,18,134559,p8my8vj8re7,stimuli/64.jpg,medium,bird,1,/Users/martincz/GitHub/COGS119/group_wi26_verbal_complexity/analysis/../data/raw_data/p8my8vj8re7_1772138789380.csv,bear,bird,Female,cognitive science,FALSE,64
5263,survey-text,22,19,139824,p8my8vj8re7,stimuli/8.jpg,easy,parallelogram,1,/Users/martincz/GitHub/COGS119/group_wi26_verbal_complexity/analysis/../data/raw_data/p8my8vj8re7_1772138789380.csv,bear,parallelogram,Female,cognitive science,FALSE,8
24394,survey-text,23,20,164219,p8my8vj8re7,stimuli/48.jpg,easy,N but flipped,3,/Users/martincz/GitHub/COGS119/group_wi26_verbal_complexity/analysis/../data/raw_data/p8my8vj8re7_1772138789380.csv,bear,N but flipped,Female,cognitive science,FALSE,48
83807,survey-text,4,1,121022,p97lbxy42mx,stimuli/34.jpg,easy,"flat bottom with two lines going up right that then on the left makes a point like a triangle goes back up slightly shifts to a trapezoids end and goes down (moving to the right now) forming an outline of a triangles and ends with that line mentioned previously
",49,/Users/martincz/GitHub/COGS119/group_wi26_verbal_complexity/analysis/../data/raw_data/p97lbxy42mx_1772139922067.csv,cheetah,"flat bottom with two lines going up right that then on the left makes a point like a triangle goes back up slightly shifts to a trapezoids end and goes down (moving to the right now) forming an outline of a triangles and ends with that line mentioned previously
",Female,CBN,FALSE,34
56856,survey-text,5,2,177883,p97lbxy42mx,stimuli/42.jpg,easy,"middle right forms an outline of a triangle and goes down just a bit forming a pentagon side and goes flat down on the left theres a flat triangle goes up and makes angled shapes to finish
",37,/Users/martincz/GitHub/COGS119/group_wi26_verbal_complexity/analysis/../data/raw_data/p97lbxy42mx_1772139922067.csv,cheetah,"middle right forms an outline of a triangle and goes down just a bit forming a pentagon side and goes flat down on the left theres a flat triangle goes up and makes angled shapes to finish
",Female,CBN,FALSE,42
15244,survey-text,6,3,193131,p97lbxy42mx,stimuli/154.jpg,hard,this looks like a puzzle piece of some sort,9,/Users/martincz/GitHub/COGS119/group_wi26_verbal_complexity/analysis/../data/raw_data/p97lbxy42mx_1772139922067.csv,cheetah,this looks like a puzzle piece of some sort  ,Female,CBN,FALSE,154
55562,survey-text,7,4,248697,p97lbxy42mx,stimuli/114.jpg,hard,kind of looks like a bird you see the beak at the bottom right because it forms a triangle and going from the left the lines are forged with a mini divit and continues to go up forming another triangle shape and goes,43,/Users/martincz/GitHub/COGS119/group_wi26_verbal_complexity/analysis/../data/raw_data/p97lbxy42mx_1772139922067.csv,cheetah,kind of looks like a bird you see the beak at the bottom right because it forms a triangle and going from the left the lines are forged with a mini divit and continues to go up forming another triangle shape and goes ,Female,CBN,FALSE,114
14375,survey-text,8,5,263095,p97lbxy42mx,stimuli/50.jpg,easy,almost a rectangle but more scribbles,6,/Users/martincz/GitHub/COGS119/group_wi26_verbal_complexity/analysis/../data/raw_data/p97lbxy42mx_1772139922067.csv,cheetah,almost a rectangle but more scribbles,Female,CBN,FALSE,50
28515,survey-text,9,6,291615,p97lbxy42mx,stimuli/66.jpg,medium,"this kind of looks like the blue angels aircraft when you view it from bottom right to left
",18,/Users/martincz/GitHub/COGS119/group_wi26_verbal_complexity/analysis/../data/raw_data/p97lbxy42mx_1772139922067.csv,cheetah,"this kind of looks like the blue angels aircraft when you view it from bottom right to left
",Female,CBN,FALSE,66
70988,survey-text,10,7,362608,p97lbxy42mx,stimuli/146.jpg,hard,almost looks like a person with the two feet being on the right side one pointy part upper right and lower right looks like a peg  leg with the left going making a wide rectangle to act like the arm and when you go up it could be the head with a hat attached and on the right underdearth the shape looking like a sword is the shoulder/other arm,69,/Users/martincz/GitHub/COGS119/group_wi26_verbal_complexity/analysis/../data/raw_data/p97lbxy42mx_1772139922067.csv,cheetah,almost looks like a person with the two feet being on the right side one pointy part upper right and lower right looks like a peg  leg with the left going making a wide rectangle to act like the arm and when you go up it could be the head with a hat attached and on the right underdearth the shape looking like a sword is the shoulder/other arm,Female,CBN,FALSE,146
18218,survey-text,11,8,380830,p97lbxy42mx,stimuli/10.jpg,easy,almost looks like a trapezoid,5,/Users/martincz/GitHub/COGS119/group_wi26_verbal_complexity/analysis/../data/raw_data/p97lbxy42mx_1772139922067.csv,cheetah,almost looks like a trapezoid,Female,CBN,FALSE,10
2897,survey-text,12,9,383731,p97lbxy42mx,stimuli/2.jpg,easy,triangle,1,/Users/martincz/GitHub/COGS119/group_wi26_verbal_complexity/analysis/../data/raw_data/p97lbxy42mx_1772139922067.csv,cheetah,triangle,Female,CBN,FALSE,2
42348,survey-text,13,10,426083,p97lbxy42mx,stimuli/90.jpg,medium,outside piece makes a rhombus and it continues with a triangles bottom on the left and makes contorted lines moving to the right,23,/Users/martincz/GitHub/COGS119/group_wi26_verbal_complexity/analysis/../data/raw_data/p97lbxy42mx_1772139922067.csv,cheetah,outside piece makes a rhombus and it continues with a triangles bottom on the left and makes contorted lines moving to the right,Female,CBN,FALSE,90
24841,survey-text,14,11,450927,p97lbxy42mx,stimuli/26.jpg,easy,at the top there is an outside triang;e and it continues as the rest of the shape is a messed up triangles,22,/Users/martincz/GitHub/COGS119/group_wi26_verbal_complexity/analysis/../data/raw_data/p97lbxy42mx_1772139922067.csv,cheetah,at the top there is an outside triang;e and it continues as the rest of the shape is a messed up triangles,Female,CBN,FALSE,26
47448,survey-text,15,12,498378,p97lbxy42mx,stimuli/138.jpg,hard,idk,1,/Users/martincz/GitHub/COGS119/group_wi26_verbal_complexity/analysis/../data/raw_data/p97lbxy42mx_1772139922067.csv,cheetah,idk,Female,CBN,FALSE,138
11420,survey-text,16,13,509802,p97lbxy42mx,stimuli/106.jpg,medium,triangles and trapezoids,3,/Users/martincz/GitHub/COGS119/group_wi26_verbal_complexity/analysis/../data/raw_data/p97lbxy42mx_1772139922067.csv,cheetah,triangles and trapezoids,Female,CBN,FALSE,106
23307,survey-text,17,14,533114,p97lbxy42mx,stimuli/82.jpg,medium,another one with a lot of tipi points and an upside down triangle looking from top to bottom,18,/Users/martincz/GitHub/COGS119/group_wi26_verbal_complexity/analysis/../data/raw_data/p97lbxy42mx_1772139922067.csv,cheetah,another one with a lot of tipi points and an upside down triangle looking from top to bottom,Female,CBN,FALSE,82
18526,survey-text,18,15,551643,p97lbxy42mx,stimuli/18.jpg,easy,pentagon looks like a tumbled stop sign,7,/Users/martincz/GitHub/COGS119/group_wi26_verbal_complexity/analysis/../data/raw_data/p97lbxy42mx_1772139922067.csv,cheetah,pentagon looks like a tumbled stop sign,Female,CBN,FALSE,18
35937,survey-text,19,16,587583,p97lbxy42mx,stimuli/130.jpg,hard,an m is formed looking at the left because there are two cutouts that look like the tops of triangles and the bottom is said to be the same,29,/Users/martincz/GitHub/COGS119/group_wi26_verbal_complexity/analysis/../data/raw_data/p97lbxy42mx_1772139922067.csv,cheetah,an m is formed looking at the left because there are two cutouts that look like the tops of triangles and the bottom is said to be the same,Female,CBN,FALSE,130
22135,survey-text,20,17,609723,p97lbxy42mx,stimuli/74.jpg,medium,looks like a small hand comb with the left being the teeth,12,/Users/martincz/GitHub/COGS119/group_wi26_verbal_complexity/analysis/../data/raw_data/p97lbxy42mx_1772139922067.csv,cheetah,looks like a small hand comb with the left being the teeth,Female,CBN,FALSE,74
6217,survey-text,21,18,615943,p97lbxy42mx,stimuli/98.jpg,medium,looks like the letter T,5,/Users/martincz/GitHub/COGS119/group_wi26_verbal_complexity/analysis/../data/raw_data/p97lbxy42mx_1772139922067.csv,cheetah,looks like the letter T,Female,CBN,FALSE,98
19228,survey-text,22,19,635175,p97lbxy42mx,stimuli/58.jpg,medium,almost looks like a leg or lightning bolt with a heavier top and small shrunken bottom,16,/Users/martincz/GitHub/COGS119/group_wi26_verbal_complexity/analysis/../data/raw_data/p97lbxy42mx_1772139922067.csv,cheetah,almost looks like a leg or lightning bolt with a heavier top and small shrunken bottom,Female,CBN,FALSE,58
17262,survey-text,23,20,652442,p97lbxy42mx,stimuli/122.jpg,hard,looks like a mouse with a hat with the left being the ears and the top being the hat,19,/Users/martincz/GitHub/COGS119/group_wi26_verbal_complexity/analysis/../data/raw_data/p97lbxy42mx_1772139922067.csv,cheetah,looks like a mouse with a hat with the left being the ears and the top being the hat,Female,CBN,FALSE,122
24317,survey-text,4,1,40853,pcvorlv6uv5,stimuli/55.jpg,medium,"angular, like a US state with triangle cutting into it",10,/Users/martincz/GitHub/COGS119/group_wi26_verbal_complexity/analysis/../data/raw_data/pcvorlv6uv5_1772140578513.csv,sloth,"angular, like a US state with triangle cutting into it ",Female,Cognitive Behvioral Neuroscience,FALSE,55
34562,survey-text,5,2,75418,pcvorlv6uv5,stimuli/95.jpg,medium,"smooth, many sides, three squarish sections",6,/Users/martincz/GitHub/COGS119/group_wi26_verbal_complexity/analysis/../data/raw_data/pcvorlv6uv5_1772140578513.csv,sloth,"smooth, many sides, three squarish sections ",Female,Cognitive Behvioral Neuroscience,FALSE,95
38687,survey-text,6,3,114108,pcvorlv6uv5,stimuli/111.jpg,hard,big trapizoidal base with mroe trapizoids sticking out on top and one on each side. Top one has two more squares also,22,/Users/martincz/GitHub/COGS119/group_wi26_verbal_complexity/analysis/../data/raw_data/pcvorlv6uv5_1772140578513.csv,sloth,big trapizoidal base with mroe trapizoids sticking out on top and one on each side. Top one has two more squares also,Female,Cognitive Behvioral Neuroscience,FALSE,111
47621,survey-text,7,4,161731,pcvorlv6uv5,stimuli/47.jpg,easy,"a square with a triangle on top and another larger triangle ont he side
",14,/Users/martincz/GitHub/COGS119/group_wi26_verbal_complexity/analysis/../data/raw_data/pcvorlv6uv5_1772140578513.csv,sloth,"a square with a triangle on top and another larger triangle ont he side
",Female,Cognitive Behvioral Neuroscience,FALSE,47
14957,survey-text,8,5,176690,pcvorlv6uv5,stimuli/31.jpg,easy,"a square with two triangles cutting out the right side
",10,/Users/martincz/GitHub/COGS119/group_wi26_verbal_complexity/analysis/../data/raw_data/pcvorlv6uv5_1772140578513.csv,sloth,"a square with two triangles cutting out the right side
",Female,Cognitive Behvioral Neuroscience,FALSE,31
