success,rt,trial_type,trial_index,plugin_version,time_elapsed,random_id,participant,participant_gender,stimulus,response,timeout,failed_images,failed_audio,failed_video,figure,difficulty,response_time_seconds,text_response,word_count,response_index,question_order,file_name
TRUE,1235,fullscreen,0,null,2239,p09z5qk6x27,NA,NA,NA,NA,NA,NA,NA,NA,NA,NA,NA,NA,NA,NA,NA,/Users/martincz/GitHub/COGS119/group_wi26_verbal_complexity/analysis/../data/raw_data/p09z5qk6x27_1772155536316.csv
NA,13634,html-keyboard-response,1,2.0.0,15876,p09z5qk6x27,NA,NA,"
    <div>
      <p>Welcome to our experiment!</p>
      <p>In each trial, you will see a shape. Describe the shape as accurately as you can in the provided textbox.</p>
      <p>Your description can be as long or as short as you’d like, from just a few words up to a whole paragraph if you feel that is necessary.</p>
      <p></p>
      <p>The next page will ask for participant ID.</p>
      <p></p>
      <p>After all the trials have been completed, the last page will ask for some demographic information.</p>
      <p></p>
      <p>Once you are ready to start, click any button.</p>
    </div>",NA,NA,NA,NA,NA,NA,NA,NA,NA,NA,NA,NA,/Users/martincz/GitHub/COGS119/group_wi26_verbal_complexity/analysis/../data/raw_data/p09z5qk6x27_1772155536316.csv
NA,2395,survey-text,2,2.0.0,18274,p09z5qk6x27,NA,NA,NA,"{""participant_id"":""lynx""}",NA,NA,NA,NA,NA,NA,NA,NA,NA,NA,NA,/Users/martincz/GitHub/COGS119/group_wi26_verbal_complexity/analysis/../data/raw_data/p09z5qk6x27_1772155536316.csv
TRUE,NA,preload,3,2.0.0,18572,p09z5qk6x27,NA,NA,NA,NA,FALSE,[],[],[],NA,NA,NA,NA,NA,NA,NA,/Users/martincz/GitHub/COGS119/group_wi26_verbal_complexity/analysis/../data/raw_data/p09z5qk6x27_1772155536316.csv
NA,74162,survey-text,4,2.0.0,92742,p09z5qk6x27,NA,NA,NA,"{""image_description"":""sharp and uneven ""}",NA,NA,NA,NA,stimuli/114.jpg,hard,NA,sharp and uneven,3,NA,NA,/Users/martincz/GitHub/COGS119/group_wi26_verbal_complexity/analysis/../data/raw_data/p09z5qk6x27_1772155536316.csv
NA,82838,survey-text,5,2.0.0,175586,p09z5qk6x27,NA,NA,NA,"{""image_description"":""sort of symmetrical, sort of sharp and pointy with some flat edges""}",NA,NA,NA,NA,stimuli/82.jpg,medium,NA,"sort of symmetrical, sort of sharp and pointy with some flat edges",12,NA,NA,/Users/martincz/GitHub/COGS119/group_wi26_verbal_complexity/analysis/../data/raw_data/p09z5qk6x27_1772155536316.csv
NA,85431,survey-text,6,2.0.0,261021,p09z5qk6x27,NA,NA,NA,"{""image_description"":""flat edges kinda boring lowkey no personality""}",NA,NA,NA,NA,stimuli/58.jpg,medium,NA,flat edges kinda boring lowkey no personality,7,NA,NA,/Users/martincz/GitHub/COGS119/group_wi26_verbal_complexity/analysis/../data/raw_data/p09z5qk6x27_1772155536316.csv
NA,48393,survey-text,7,2.0.0,309419,p09z5qk6x27,NA,NA,NA,"{""image_description"":""even and square-like, kind of looks like a trapezoid,4 clear sides""}",NA,NA,NA,NA,stimuli/10.jpg,easy,NA,"even and square-like, kind of looks like a trapezoid,4 clear sides",11,NA,NA,/Users/martincz/GitHub/COGS119/group_wi26_verbal_complexity/analysis/../data/raw_data/p09z5qk6x27_1772155536316.csv
NA,68748,survey-text,8,2.0.0,378174,p09z5qk6x27,NA,NA,NA,"{""image_description"":""one side has more points and sharper edges and the other side has less""}",NA,NA,NA,NA,stimuli/66.jpg,medium,NA,one side has more points and sharper edges and the other side has less,14,NA,NA,/Users/martincz/GitHub/COGS119/group_wi26_verbal_complexity/analysis/../data/raw_data/p09z5qk6x27_1772155536316.csv
NA,129373,survey-text,9,2.0.0,507556,p09z5qk6x27,NA,NA,NA,"{""image_description"":""uneven but not sharp, looks like it has some arms or branches sticking out from it\n""}",NA,NA,NA,NA,stimuli/122.jpg,hard,NA,"uneven but not sharp, looks like it has some arms or branches sticking out from it
",16,NA,NA,/Users/martincz/GitHub/COGS119/group_wi26_verbal_complexity/analysis/../data/raw_data/p09z5qk6x27_1772155536316.csv
NA,42605,survey-text,10,2.0.0,550167,p09z5qk6x27,NA,NA,NA,"{""image_description"":""looks like a dorito with a part taken out of it, like it was almost a triangle but had a part removed""}",NA,NA,NA,NA,stimuli/26.jpg,easy,NA,"looks like a dorito with a part taken out of it, like it was almost a triangle but had a part removed",22,NA,NA,/Users/martincz/GitHub/COGS119/group_wi26_verbal_complexity/analysis/../data/raw_data/p09z5qk6x27_1772155536316.csv
NA,40897,survey-text,11,2.0.0,591070,p09z5qk6x27,NA,NA,NA,"{""image_description"":""sharp and uneven, has some clean 90 degree angles at the bottom middle ""}",NA,NA,NA,NA,stimuli/106.jpg,medium,NA,"sharp and uneven, has some clean 90 degree angles at the bottom middle",13,NA,NA,/Users/martincz/GitHub/COGS119/group_wi26_verbal_complexity/analysis/../data/raw_data/p09z5qk6x27_1772155536316.csv
NA,47175,survey-text,12,2.0.0,638250,p09z5qk6x27,NA,NA,NA,"{""image_description"":""skinny at the bottom and has a broad part at the top, overall flat edges""}",NA,NA,NA,NA,stimuli/42.jpg,easy,NA,"skinny at the bottom and has a broad part at the top, overall flat edges",15,NA,NA,/Users/martincz/GitHub/COGS119/group_wi26_verbal_complexity/analysis/../data/raw_data/p09z5qk6x27_1772155536316.csv
NA,58733,survey-text,13,2.0.0,696988,p09z5qk6x27,NA,NA,NA,"{""image_description"":""kind of looks like an anvil if you look at it sideways""}",NA,NA,NA,NA,stimuli/98.jpg,medium,NA,kind of looks like an anvil if you look at it sideways,12,NA,NA,/Users/martincz/GitHub/COGS119/group_wi26_verbal_complexity/analysis/../data/raw_data/p09z5qk6x27_1772155536316.csv
NA,30278,survey-text,14,2.0.0,727271,p09z5qk6x27,NA,NA,NA,"{""image_description"":""3 mostly flat edges, with inward spikes at the top""}",NA,NA,NA,NA,stimuli/34.jpg,easy,NA,"3 mostly flat edges, with inward spikes at the top",10,NA,NA,/Users/martincz/GitHub/COGS119/group_wi26_verbal_complexity/analysis/../data/raw_data/p09z5qk6x27_1772155536316.csv
NA,73944,survey-text,15,2.0.0,801221,p09z5qk6x27,NA,NA,NA,"{""image_description"":""looks like an L flipped and if it was sharp""}",NA,NA,NA,NA,stimuli/154.jpg,hard,NA,looks like an L flipped and if it was sharp,10,NA,NA,/Users/martincz/GitHub/COGS119/group_wi26_verbal_complexity/analysis/../data/raw_data/p09z5qk6x27_1772155536316.csv
NA,58776,survey-text,16,2.0.0,860001,p09z5qk6x27,NA,NA,NA,"{""image_description"":""uneven and jagged, lots of inward folding, making it has a large perimeter""}",NA,NA,NA,NA,stimuli/146.jpg,hard,NA,"uneven and jagged, lots of inward folding, making it has a large perimeter",13,NA,NA,/Users/martincz/GitHub/COGS119/group_wi26_verbal_complexity/analysis/../data/raw_data/p09z5qk6x27_1772155536316.csv
NA,18631,survey-text,17,2.0.0,878638,p09z5qk6x27,NA,NA,NA,"{""image_description"":""looks like a kite\n""}",NA,NA,NA,NA,stimuli/18.jpg,easy,NA,"looks like a kite
",4,NA,NA,/Users/martincz/GitHub/COGS119/group_wi26_verbal_complexity/analysis/../data/raw_data/p09z5qk6x27_1772155536316.csv
NA,11511,survey-text,18,2.0.0,890154,p09z5qk6x27,NA,NA,NA,"{""image_description"":""sharp dorito""}",NA,NA,NA,NA,stimuli/2.jpg,easy,NA,sharp dorito,2,NA,NA,/Users/martincz/GitHub/COGS119/group_wi26_verbal_complexity/analysis/../data/raw_data/p09z5qk6x27_1772155536316.csv
NA,99157,survey-text,19,2.0.0,989316,p09z5qk6x27,NA,NA,NA,"{""image_description"":""uneven and jagged, uneven and asymetrical""}",NA,NA,NA,NA,stimuli/130.jpg,hard,NA,"uneven and jagged, uneven and asymetrical",6,NA,NA,/Users/martincz/GitHub/COGS119/group_wi26_verbal_complexity/analysis/../data/raw_data/p09z5qk6x27_1772155536316.csv
NA,70831,survey-text,20,2.0.0,1060152,p09z5qk6x27,NA,NA,NA,"{""image_description"":""gives me massachusetts vibes""}",NA,NA,NA,NA,stimuli/50.jpg,easy,NA,gives me massachusetts vibes,4,NA,NA,/Users/martincz/GitHub/COGS119/group_wi26_verbal_complexity/analysis/../data/raw_data/p09z5qk6x27_1772155536316.csv
NA,134194,survey-text,21,2.0.0,1194352,p09z5qk6x27,NA,NA,NA,"{""image_description"":""one side is flat with spikes sticking out and the other sides are almost making a pyramid but ones dented\n""}",NA,NA,NA,NA,stimuli/74.jpg,medium,NA,"one side is flat with spikes sticking out and the other sides are almost making a pyramid but ones dented
",20,NA,NA,/Users/martincz/GitHub/COGS119/group_wi26_verbal_complexity/analysis/../data/raw_data/p09z5qk6x27_1772155536316.csv
NA,37575,survey-text,22,2.0.0,1231932,p09z5qk6x27,NA,NA,NA,"{""image_description"":""the right and top side look serated, the bottom left is flat""}",NA,NA,NA,NA,stimuli/138.jpg,hard,NA,"the right and top side look serated, the bottom left is flat",12,NA,NA,/Users/martincz/GitHub/COGS119/group_wi26_verbal_complexity/analysis/../data/raw_data/p09z5qk6x27_1772155536316.csv
NA,34696,survey-text,23,2.0.0,1266632,p09z5qk6x27,NA,NA,NA,"{""image_description"":""flat and 90 degrees on top right, the others sides are uneven and jagged\n""}",NA,NA,NA,NA,stimuli/90.jpg,medium,NA,"flat and 90 degrees on top right, the others sides are uneven and jagged
",14,NA,NA,/Users/martincz/GitHub/COGS119/group_wi26_verbal_complexity/analysis/../data/raw_data/p09z5qk6x27_1772155536316.csv
NA,8062,survey-text,24,2.0.0,1274697,p09z5qk6x27,NA,NA,NA,"{""participant_major"":""Cognitive Behavioral Neuroscience""}",NA,NA,NA,NA,NA,NA,NA,NA,NA,NA,NA,/Users/martincz/GitHub/COGS119/group_wi26_verbal_complexity/analysis/../data/raw_data/p09z5qk6x27_1772155536316.csv
NA,2481,survey-multi-choice,25,2.2.0,1277180,p09z5qk6x27,NA,NA,NA,"{""participant_gender"":""Male""}",NA,NA,NA,NA,NA,NA,NA,NA,NA,[1],[0],/Users/martincz/GitHub/COGS119/group_wi26_verbal_complexity/analysis/../data/raw_data/p09z5qk6x27_1772155536316.csv
TRUE,1598,fullscreen,0,null,2602,p0dapobkyam,NA,NA,NA,NA,NA,NA,NA,NA,NA,NA,NA,NA,NA,NA,NA,/Users/martincz/GitHub/COGS119/group_wi26_verbal_complexity/analysis/../data/raw_data/p0dapobkyam_1772139826984.csv
NA,17301,html-keyboard-response,1,2.0.0,19907,p0dapobkyam,NA,NA,"
    <div>
      <p>Welcome to our experiment!</p>
      <p>In each trial, you will see a shape. Describe the shape as accurately as you can in the provided textbox.</p>
      <p>Your description can be as long or as short as you’d like, from just a few words up to a whole paragraph if you feel that is necessary.</p>
      <p></p>
      <p>The next page will ask for participant ID.</p>
      <p></p>
      <p>After all the trials have been completed, the last page will ask for some demographic information.</p>
      <p></p>
      <p>Once you are ready to start, click any button.</p>
    </div>",NA,NA,NA,NA,NA,NA,NA,NA,NA,NA,NA,NA,/Users/martincz/GitHub/COGS119/group_wi26_verbal_complexity/analysis/../data/raw_data/p0dapobkyam_1772139826984.csv
NA,5084,survey-text,2,2.0.0,24997,p0dapobkyam,NA,NA,NA,"{""participant_id"":""dolphin""}",NA,NA,NA,NA,NA,NA,NA,NA,NA,NA,NA,/Users/martincz/GitHub/COGS119/group_wi26_verbal_complexity/analysis/../data/raw_data/p0dapobkyam_1772139826984.csv
TRUE,NA,preload,3,2.0.0,25208,p0dapobkyam,NA,NA,NA,NA,FALSE,[],[],[],NA,NA,NA,NA,NA,NA,NA,/Users/martincz/GitHub/COGS119/group_wi26_verbal_complexity/analysis/../data/raw_data/p0dapobkyam_1772139826984.csv
NA,8523,survey-text,4,2.0.0,33750,p0dapobkyam,NA,NA,NA,"{""image_description"":""rhombus ""}",NA,NA,NA,NA,stimuli/8.jpg,easy,NA,rhombus,1,NA,NA,/Users/martincz/GitHub/COGS119/group_wi26_verbal_complexity/analysis/../data/raw_data/p0dapobkyam_1772139826984.csv
NA,10431,survey-text,5,2.0.0,44191,p0dapobkyam,NA,NA,NA,"{""image_description"":""not a shape \n""}",NA,NA,NA,NA,stimuli/152.jpg,hard,NA,"not a shape 
",3,NA,NA,/Users/martincz/GitHub/COGS119/group_wi26_verbal_complexity/analysis/../data/raw_data/p0dapobkyam_1772139826984.csv
NA,11657,survey-text,6,2.0.0,55856,p0dapobkyam,NA,NA,NA,"{""image_description"":""triangle\n""}",NA,NA,NA,NA,stimuli/16.jpg,easy,NA,"triangle
",1,NA,NA,/Users/martincz/GitHub/COGS119/group_wi26_verbal_complexity/analysis/../data/raw_data/p0dapobkyam_1772139826984.csv
NA,19743,survey-text,7,2.0.0,75608,p0dapobkyam,NA,NA,NA,"{""image_description"":""not a shape\n""}",NA,NA,NA,NA,stimuli/72.jpg,medium,NA,"not a shape
",3,NA,NA,/Users/martincz/GitHub/COGS119/group_wi26_verbal_complexity/analysis/../data/raw_data/p0dapobkyam_1772139826984.csv
NA,12357,survey-text,8,2.0.0,87973,p0dapobkyam,NA,NA,NA,"{""image_description"":""hexagon""}",NA,NA,NA,NA,stimuli/24.jpg,easy,NA,hexagon,1,NA,NA,/Users/martincz/GitHub/COGS119/group_wi26_verbal_complexity/analysis/../data/raw_data/p0dapobkyam_1772139826984.csv
NA,18540,survey-text,9,2.0.0,106521,p0dapobkyam,NA,NA,NA,"{""image_description"":""not a shape""}",NA,NA,NA,NA,stimuli/120.jpg,hard,NA,not a shape,3,NA,NA,/Users/martincz/GitHub/COGS119/group_wi26_verbal_complexity/analysis/../data/raw_data/p0dapobkyam_1772139826984.csv
NA,5794,survey-text,10,2.0.0,112324,p0dapobkyam,NA,NA,NA,"{""image_description"":""not a shape""}",NA,NA,NA,NA,stimuli/64.jpg,medium,NA,not a shape,3,NA,NA,/Users/martincz/GitHub/COGS119/group_wi26_verbal_complexity/analysis/../data/raw_data/p0dapobkyam_1772139826984.csv
NA,11556,survey-text,11,2.0.0,123888,p0dapobkyam,NA,NA,NA,"{""image_description"":""lightning bolt""}",NA,NA,NA,NA,stimuli/80.jpg,medium,NA,lightning bolt,2,NA,NA,/Users/martincz/GitHub/COGS119/group_wi26_verbal_complexity/analysis/../data/raw_data/p0dapobkyam_1772139826984.csv
NA,11543,survey-text,12,2.0.0,135441,p0dapobkyam,NA,NA,NA,"{""image_description"":""star""}",NA,NA,NA,NA,stimuli/144.jpg,hard,NA,star,1,NA,NA,/Users/martincz/GitHub/COGS119/group_wi26_verbal_complexity/analysis/../data/raw_data/p0dapobkyam_1772139826984.csv
NA,13424,survey-text,13,2.0.0,148874,p0dapobkyam,NA,NA,NA,"{""image_description"":""not a shape\n""}",NA,NA,NA,NA,stimuli/104.jpg,medium,NA,"not a shape
",3,NA,NA,/Users/martincz/GitHub/COGS119/group_wi26_verbal_complexity/analysis/../data/raw_data/p0dapobkyam_1772139826984.csv
NA,8322,survey-text,14,2.0.0,157203,p0dapobkyam,NA,NA,NA,"{""image_description"":""rectangle""}",NA,NA,NA,NA,stimuli/48.jpg,easy,NA,rectangle,1,NA,NA,/Users/martincz/GitHub/COGS119/group_wi26_verbal_complexity/analysis/../data/raw_data/p0dapobkyam_1772139826984.csv
NA,6744,survey-text,15,2.0.0,163954,p0dapobkyam,NA,NA,NA,"{""image_description"":""not a shape\n""}",NA,NA,NA,NA,stimuli/112.jpg,hard,NA,"not a shape
",3,NA,NA,/Users/martincz/GitHub/COGS119/group_wi26_verbal_complexity/analysis/../data/raw_data/p0dapobkyam_1772139826984.csv
NA,22028,survey-text,16,2.0.0,185989,p0dapobkyam,NA,NA,NA,"{""image_description"":""triangles and rectangles""}",NA,NA,NA,NA,stimuli/88.jpg,medium,NA,triangles and rectangles,3,NA,NA,/Users/martincz/GitHub/COGS119/group_wi26_verbal_complexity/analysis/../data/raw_data/p0dapobkyam_1772139826984.csv
NA,17593,survey-text,17,2.0.0,203591,p0dapobkyam,NA,NA,NA,"{""image_description"":""squares and triangles\n""}",NA,NA,NA,NA,stimuli/40.jpg,easy,NA,"squares and triangles
",3,NA,NA,/Users/martincz/GitHub/COGS119/group_wi26_verbal_complexity/analysis/../data/raw_data/p0dapobkyam_1772139826984.csv
NA,7406,survey-text,18,2.0.0,211005,p0dapobkyam,NA,NA,NA,"{""image_description"":""dragon shape""}",NA,NA,NA,NA,stimuli/136.jpg,hard,NA,dragon shape,2,NA,NA,/Users/martincz/GitHub/COGS119/group_wi26_verbal_complexity/analysis/../data/raw_data/p0dapobkyam_1772139826984.csv
NA,14210,survey-text,19,2.0.0,225222,p0dapobkyam,NA,NA,NA,"{""image_description"":""square""}",NA,NA,NA,NA,stimuli/56.jpg,medium,NA,square,1,NA,NA,/Users/martincz/GitHub/COGS119/group_wi26_verbal_complexity/analysis/../data/raw_data/p0dapobkyam_1772139826984.csv
NA,45159,survey-text,20,2.0.0,270387,p0dapobkyam,NA,NA,NA,"{""image_description"":""butterfly""}",NA,NA,NA,NA,stimuli/160.jpg,hard,NA,butterfly,1,NA,NA,/Users/martincz/GitHub/COGS119/group_wi26_verbal_complexity/analysis/../data/raw_data/p0dapobkyam_1772139826984.csv
NA,13144,survey-text,21,2.0.0,283541,p0dapobkyam,NA,NA,NA,"{""image_description"":""looks like a bird\n""}",NA,NA,NA,NA,stimuli/128.jpg,hard,NA,"looks like a bird
",4,NA,NA,/Users/martincz/GitHub/COGS119/group_wi26_verbal_complexity/analysis/../data/raw_data/p0dapobkyam_1772139826984.csv
NA,20840,survey-text,22,2.0.0,304389,p0dapobkyam,NA,NA,NA,"{""image_description"":""a mix of triangles and squares\n""}",NA,NA,NA,NA,stimuli/96.jpg,medium,NA,"a mix of triangles and squares
",6,NA,NA,/Users/martincz/GitHub/COGS119/group_wi26_verbal_complexity/analysis/../data/raw_data/p0dapobkyam_1772139826984.csv
NA,8092,survey-text,23,2.0.0,312492,p0dapobkyam,NA,NA,NA,"{""image_description"":""paper plane""}",NA,NA,NA,NA,stimuli/32.jpg,easy,NA,paper plane,2,NA,NA,/Users/martincz/GitHub/COGS119/group_wi26_verbal_complexity/analysis/../data/raw_data/p0dapobkyam_1772139826984.csv
NA,16138,survey-text,24,2.0.0,328632,p0dapobkyam,NA,NA,NA,"{""participant_major"":""Cognitive and Behavioral Neuroscience""}",NA,NA,NA,NA,NA,NA,NA,NA,NA,NA,NA,/Users/martincz/GitHub/COGS119/group_wi26_verbal_complexity/analysis/../data/raw_data/p0dapobkyam_1772139826984.csv
NA,2266,survey-multi-choice,25,2.2.0,330901,p0dapobkyam,NA,NA,NA,"{""participant_gender"":""Female""}",NA,NA,NA,NA,NA,NA,NA,NA,NA,[0],[0],/Users/martincz/GitHub/COGS119/group_wi26_verbal_complexity/analysis/../data/raw_data/p0dapobkyam_1772139826984.csv
TRUE,1669,fullscreen,0,null,2683,p0ncqkt89ht,NA,NA,NA,NA,NA,NA,NA,NA,NA,NA,NA,NA,NA,NA,NA,/Users/martincz/GitHub/COGS119/group_wi26_verbal_complexity/analysis/../data/raw_data/p0ncqkt89ht_1772138743276.csv
NA,18888,html-keyboard-response,1,2.0.0,21574,p0ncqkt89ht,NA,NA,"
    <div>
      <p>Welcome to our experiment!</p>
      <p>In each trial, you will see a shape. Describe the shape as accurately as you can in the provided textbox.</p>
      <p>Your description can be as long or as short as you’d like, from just a few words up to a whole paragraph if you feel that is necessary.</p>
      <p></p>
      <p>The next page will ask for participant ID.</p>
      <p></p>
      <p>After all the trials have been completed, the last page will ask for some demographic information.</p>
      <p></p>
      <p>Once you are ready to start, click any button.</p>
    </div>",NA,NA,NA,NA,NA,NA,NA,NA,NA,NA,NA,NA,/Users/martincz/GitHub/COGS119/group_wi26_verbal_complexity/analysis/../data/raw_data/p0ncqkt89ht_1772138743276.csv
NA,1946,survey-text,2,2.0.0,23526,p0ncqkt89ht,NA,NA,NA,"{""participant_id"":""elk""}",NA,NA,NA,NA,NA,NA,NA,NA,NA,NA,NA,/Users/martincz/GitHub/COGS119/group_wi26_verbal_complexity/analysis/../data/raw_data/p0ncqkt89ht_1772138743276.csv
TRUE,NA,preload,3,2.0.0,23725,p0ncqkt89ht,NA,NA,NA,NA,FALSE,[],[],[],NA,NA,NA,NA,NA,NA,NA,/Users/martincz/GitHub/COGS119/group_wi26_verbal_complexity/analysis/../data/raw_data/p0ncqkt89ht_1772138743276.csv
NA,18985,survey-text,4,2.0.0,42746,p0ncqkt89ht,NA,NA,NA,"{""image_description"":""5 sides, shaped like a triangle""}",NA,NA,NA,NA,stimuli/17.jpg,easy,NA,"5 sides, shaped like a triangle",6,NA,NA,/Users/martincz/GitHub/COGS119/group_wi26_verbal_complexity/analysis/../data/raw_data/p0ncqkt89ht_1772138743276.csv
NA,17348,survey-text,5,2.0.0,60120,p0ncqkt89ht,NA,NA,NA,"{""image_description"":""looks like a leaf, lots of sides, polygon\n""}",NA,NA,NA,NA,stimuli/129.jpg,hard,NA,"looks like a leaf, lots of sides, polygon
",8,NA,NA,/Users/martincz/GitHub/COGS119/group_wi26_verbal_complexity/analysis/../data/raw_data/p0ncqkt89ht_1772138743276.csv
NA,56419,survey-text,6,2.0.0,116564,p0ncqkt89ht,NA,NA,NA,"{""image_description"":""looks like shoe, 11 sides\n""}",NA,NA,NA,NA,stimuli/41.jpg,easy,NA,"looks like shoe, 11 sides
",5,NA,NA,/Users/martincz/GitHub/COGS119/group_wi26_verbal_complexity/analysis/../data/raw_data/p0ncqkt89ht_1772138743276.csv
NA,25303,survey-text,7,2.0.0,141893,p0ncqkt89ht,NA,NA,NA,"{""image_description"":""looks like a paper crane\n""}",NA,NA,NA,NA,stimuli/73.jpg,medium,NA,"looks like a paper crane
",5,NA,NA,/Users/martincz/GitHub/COGS119/group_wi26_verbal_complexity/analysis/../data/raw_data/p0ncqkt89ht_1772138743276.csv
NA,12959,survey-text,8,2.0.0,154873,p0ncqkt89ht,NA,NA,NA,"{""image_description"":""looks like a dragon, lots of sides, some pointy edges\n""}",NA,NA,NA,NA,stimuli/137.jpg,hard,NA,"looks like a dragon, lots of sides, some pointy edges
",10,NA,NA,/Users/martincz/GitHub/COGS119/group_wi26_verbal_complexity/analysis/../data/raw_data/p0ncqkt89ht_1772138743276.csv
NA,21436,survey-text,9,2.0.0,176330,p0ncqkt89ht,NA,NA,NA,"{""image_description"":""lots of pointy edges, lots of sides""}",NA,NA,NA,NA,stimuli/153.jpg,hard,NA,"lots of pointy edges, lots of sides",7,NA,NA,/Users/martincz/GitHub/COGS119/group_wi26_verbal_complexity/analysis/../data/raw_data/p0ncqkt89ht_1772138743276.csv
NA,27079,survey-text,10,2.0.0,203428,p0ncqkt89ht,NA,NA,NA,"{""image_description"":""16 sides, 7 pointy edges\n""}",NA,NA,NA,NA,stimuli/89.jpg,medium,NA,"16 sides, 7 pointy edges
",5,NA,NA,/Users/martincz/GitHub/COGS119/group_wi26_verbal_complexity/analysis/../data/raw_data/p0ncqkt89ht_1772138743276.csv
NA,38361,survey-text,11,2.0.0,241806,p0ncqkt89ht,NA,NA,NA,"{""image_description"":""lots of edges, ""}",NA,NA,NA,NA,stimuli/121.jpg,hard,NA,"lots of edges,",3,NA,NA,/Users/martincz/GitHub/COGS119/group_wi26_verbal_complexity/analysis/../data/raw_data/p0ncqkt89ht_1772138743276.csv
NA,31758,survey-text,12,2.0.0,273581,p0ncqkt89ht,NA,NA,NA,"{""image_description"":""3 triangles, at least 2 squares""}",NA,NA,NA,NA,stimuli/105.jpg,medium,NA,"3 triangles, at least 2 squares",6,NA,NA,/Users/martincz/GitHub/COGS119/group_wi26_verbal_complexity/analysis/../data/raw_data/p0ncqkt89ht_1772138743276.csv
NA,8665,survey-text,13,2.0.0,282266,p0ncqkt89ht,NA,NA,NA,"{""image_description"":""triangle, 3 sides, 3 angles""}",NA,NA,NA,NA,stimuli/1.jpg,easy,NA,"triangle, 3 sides, 3 angles",5,NA,NA,/Users/martincz/GitHub/COGS119/group_wi26_verbal_complexity/analysis/../data/raw_data/p0ncqkt89ht_1772138743276.csv
NA,43115,survey-text,14,2.0.0,325406,p0ncqkt89ht,NA,NA,NA,"{""image_description"":""lots of edges, two triangles, trapezoids and squares ""}",NA,NA,NA,NA,stimuli/97.jpg,medium,NA,"lots of edges, two triangles, trapezoids and squares",8,NA,NA,/Users/martincz/GitHub/COGS119/group_wi26_verbal_complexity/analysis/../data/raw_data/p0ncqkt89ht_1772138743276.csv
NA,29409,survey-text,15,2.0.0,354833,p0ncqkt89ht,NA,NA,NA,"{""image_description"":""1 triangel, 3 squares ""}",NA,NA,NA,NA,stimuli/25.jpg,easy,NA,"1 triangel, 3 squares",4,NA,NA,/Users/martincz/GitHub/COGS119/group_wi26_verbal_complexity/analysis/../data/raw_data/p0ncqkt89ht_1772138743276.csv
NA,14622,survey-text,16,2.0.0,369473,p0ncqkt89ht,NA,NA,NA,"{""image_description"":""rectangle, 4 sides, 4 angles""}",NA,NA,NA,NA,stimuli/9.jpg,easy,NA,"rectangle, 4 sides, 4 angles",5,NA,NA,/Users/martincz/GitHub/COGS119/group_wi26_verbal_complexity/analysis/../data/raw_data/p0ncqkt89ht_1772138743276.csv
NA,17913,survey-text,17,2.0.0,387402,p0ncqkt89ht,NA,NA,NA,"{""image_description"":""combination of triangles, squares ""}",NA,NA,NA,NA,stimuli/57.jpg,medium,NA,"combination of triangles, squares",4,NA,NA,/Users/martincz/GitHub/COGS119/group_wi26_verbal_complexity/analysis/../data/raw_data/p0ncqkt89ht_1772138743276.csv
NA,22012,survey-text,18,2.0.0,409429,p0ncqkt89ht,NA,NA,NA,"{""image_description"":""9 sides""}",NA,NA,NA,NA,stimuli/33.jpg,easy,NA,9 sides,2,NA,NA,/Users/martincz/GitHub/COGS119/group_wi26_verbal_complexity/analysis/../data/raw_data/p0ncqkt89ht_1772138743276.csv
NA,19216,survey-text,19,2.0.0,428662,p0ncqkt89ht,NA,NA,NA,"{""image_description"":""lots of sides, one part looks like a crab claw ""}",NA,NA,NA,NA,stimuli/113.jpg,hard,NA,"lots of sides, one part looks like a crab claw",10,NA,NA,/Users/martincz/GitHub/COGS119/group_wi26_verbal_complexity/analysis/../data/raw_data/p0ncqkt89ht_1772138743276.csv
NA,50526,survey-text,20,2.0.0,479205,p0ncqkt89ht,NA,NA,NA,"{""image_description"":""rounded edges in some parts, also pointed edges, looks like a few triangles and squares were cut out of the shape""}",NA,NA,NA,NA,stimuli/145.jpg,hard,NA,"rounded edges in some parts, also pointed edges, looks like a few triangles and squares were cut out of the shape",21,NA,NA,/Users/martincz/GitHub/COGS119/group_wi26_verbal_complexity/analysis/../data/raw_data/p0ncqkt89ht_1772138743276.csv
NA,28095,survey-text,21,2.0.0,507320,p0ncqkt89ht,NA,NA,NA,"{""image_description"":""looks like a lot of triangles stacked on each other""}",NA,NA,NA,NA,stimuli/81.jpg,medium,NA,looks like a lot of triangles stacked on each other,10,NA,NA,/Users/martincz/GitHub/COGS119/group_wi26_verbal_complexity/analysis/../data/raw_data/p0ncqkt89ht_1772138743276.csv
NA,18020,survey-text,22,2.0.0,525358,p0ncqkt89ht,NA,NA,NA,"{""image_description"":""looks like a swan neck and head, triangles, and squares""}",NA,NA,NA,NA,stimuli/65.jpg,medium,NA,"looks like a swan neck and head, triangles, and squares",10,NA,NA,/Users/martincz/GitHub/COGS119/group_wi26_verbal_complexity/analysis/../data/raw_data/p0ncqkt89ht_1772138743276.csv
NA,33918,survey-text,23,2.0.0,559296,p0ncqkt89ht,NA,NA,NA,"{""image_description"":""12 sides, triangles and rectangles\n""}",NA,NA,NA,NA,stimuli/49.jpg,easy,NA,"12 sides, triangles and rectangles
",5,NA,NA,/Users/martincz/GitHub/COGS119/group_wi26_verbal_complexity/analysis/../data/raw_data/p0ncqkt89ht_1772138743276.csv
NA,8386,survey-text,24,2.0.0,567689,p0ncqkt89ht,NA,NA,NA,"{""participant_major"":""Cognitive Behavioral Neuroscience""}",NA,NA,NA,NA,NA,NA,NA,NA,NA,NA,NA,/Users/martincz/GitHub/COGS119/group_wi26_verbal_complexity/analysis/../data/raw_data/p0ncqkt89ht_1772138743276.csv
NA,2590,survey-multi-choice,25,2.2.0,570284,p0ncqkt89ht,NA,NA,NA,"{""participant_gender"":""Female""}",NA,NA,NA,NA,NA,NA,NA,NA,NA,[0],[0],/Users/martincz/GitHub/COGS119/group_wi26_verbal_complexity/analysis/../data/raw_data/p0ncqkt89ht_1772138743276.csv
TRUE,32812,fullscreen,0,null,33815,p0rhsmwrzdd,NA,NA,NA,NA,NA,NA,NA,NA,NA,NA,NA,NA,NA,NA,NA,/Users/martincz/GitHub/COGS119/group_wi26_verbal_complexity/analysis/../data/raw_data/p0rhsmwrzdd_1772141316795.csv
NA,1046,html-keyboard-response,1,2.0.0,34863,p0rhsmwrzdd,NA,NA,"
    <div>
      <p>Welcome to our experiment!</p>
      <p>In each trial, you will see a shape. Describe the shape as accurately as you can in the provided textbox.</p>
      <p>Your description can be as long or as short as you’d like, from just a few words up to a whole paragraph if you feel that is necessary.</p>
      <p></p>
      <p>The next page will ask for participant ID.</p>
      <p></p>
      <p>After all the trials have been completed, the last page will ask for some demographic information.</p>
      <p></p>
      <p>Once you are ready to start, click any button.</p>
    </div>",m,NA,NA,NA,NA,NA,NA,NA,NA,NA,NA,NA,/Users/martincz/GitHub/COGS119/group_wi26_verbal_complexity/analysis/../data/raw_data/p0rhsmwrzdd_1772141316795.csv
NA,1980,survey-text,2,2.0.0,36851,p0rhsmwrzdd,NA,NA,NA,"{""participant_id"":""wombat""}",NA,NA,NA,NA,NA,NA,NA,NA,NA,NA,NA,/Users/martincz/GitHub/COGS119/group_wi26_verbal_complexity/analysis/../data/raw_data/p0rhsmwrzdd_1772141316795.csv
TRUE,NA,preload,3,2.0.0,37045,p0rhsmwrzdd,NA,NA,NA,NA,FALSE,[],[],[],NA,NA,NA,NA,NA,NA,NA,/Users/martincz/GitHub/COGS119/group_wi26_verbal_complexity/analysis/../data/raw_data/p0rhsmwrzdd_1772141316795.csv
NA,42978,survey-text,4,2.0.0,80031,p0rhsmwrzdd,NA,NA,NA,"{""image_description"":""imagine like a really messed up crab with one arm pincer at the top left and two really wide pointy triangle legs""}",NA,NA,NA,NA,stimuli/113.jpg,hard,NA,imagine like a really messed up crab with one arm pincer at the top left and two really wide pointy triangle legs,22,NA,NA,/Users/martincz/GitHub/COGS119/group_wi26_verbal_complexity/analysis/../data/raw_data/p0rhsmwrzdd_1772141316795.csv
NA,41900,survey-text,5,2.0.0,121931,p0rhsmwrzdd,NA,NA,NA,"{""image_description"":""A dragon/ dog mouth with two pointy ears and a big ole smile ""}",NA,NA,NA,NA,stimuli/145.jpg,hard,NA,A dragon/ dog mouth with two pointy ears and a big ole smile,13,NA,NA,/Users/martincz/GitHub/COGS119/group_wi26_verbal_complexity/analysis/../data/raw_data/p0rhsmwrzdd_1772141316795.csv
NA,12133,survey-text,6,2.0.0,134064,p0rhsmwrzdd,NA,NA,NA,"{""image_description"":""A flowy dress with one shoulder-strap""}",NA,NA,NA,NA,stimuli/73.jpg,medium,NA,A flowy dress with one shoulder-strap,6,NA,NA,/Users/martincz/GitHub/COGS119/group_wi26_verbal_complexity/analysis/../data/raw_data/p0rhsmwrzdd_1772141316795.csv
NA,33419,survey-text,7,2.0.0,167483,p0rhsmwrzdd,NA,NA,NA,"{""image_description"":""A quadrilateral with two more quadrilaterals cut out of the bottom""}",NA,NA,NA,NA,stimuli/49.jpg,easy,NA,A quadrilateral with two more quadrilaterals cut out of the bottom,11,NA,NA,/Users/martincz/GitHub/COGS119/group_wi26_verbal_complexity/analysis/../data/raw_data/p0rhsmwrzdd_1772141316795.csv
NA,95900,survey-text,8,2.0.0,263382,p0rhsmwrzdd,NA,NA,NA,"{""image_description"":""a small puppy with a big head""}",NA,NA,NA,NA,stimuli/57.jpg,medium,NA,a small puppy with a big head,7,NA,NA,/Users/martincz/GitHub/COGS119/group_wi26_verbal_complexity/analysis/../data/raw_data/p0rhsmwrzdd_1772141316795.csv
NA,16466,survey-text,9,2.0.0,279849,p0rhsmwrzdd,NA,NA,NA,"{""image_description"":""picasso's take on ferb from Phineas and ferb""}",NA,NA,NA,NA,stimuli/105.jpg,medium,NA,picasso's take on ferb from Phineas and ferb,8,NA,NA,/Users/martincz/GitHub/COGS119/group_wi26_verbal_complexity/analysis/../data/raw_data/p0rhsmwrzdd_1772141316795.csv
NA,18849,survey-text,10,2.0.0,298699,p0rhsmwrzdd,NA,NA,NA,"{""image_description"":""a right triangle, probably scalene""}",NA,NA,NA,NA,stimuli/1.jpg,easy,NA,"a right triangle, probably scalene",5,NA,NA,/Users/martincz/GitHub/COGS119/group_wi26_verbal_complexity/analysis/../data/raw_data/p0rhsmwrzdd_1772141316795.csv
NA,71483,survey-text,11,2.0.0,370182,p0rhsmwrzdd,NA,NA,NA,"{""image_description"":""the letter 'H' but with very jagged edges and a fat left side""}",NA,NA,NA,NA,stimuli/121.jpg,hard,NA,the letter 'H' but with very jagged edges and a fat left side,13,NA,NA,/Users/martincz/GitHub/COGS119/group_wi26_verbal_complexity/analysis/../data/raw_data/p0rhsmwrzdd_1772141316795.csv
NA,27200,survey-text,12,2.0.0,397382,p0rhsmwrzdd,NA,NA,NA,"{""image_description"":""like 6 different scalene triangles all put together""}",NA,NA,NA,NA,stimuli/81.jpg,medium,NA,like 6 different scalene triangles all put together,8,NA,NA,/Users/martincz/GitHub/COGS119/group_wi26_verbal_complexity/analysis/../data/raw_data/p0rhsmwrzdd_1772141316795.csv
NA,15517,survey-text,13,2.0.0,412899,p0rhsmwrzdd,NA,NA,NA,"{""image_description"":""a dog or a small rodent with 4 legs and a big nose/muzzle""}",NA,NA,NA,NA,stimuli/97.jpg,medium,NA,a dog or a small rodent with 4 legs and a big nose/muzzle,13,NA,NA,/Users/martincz/GitHub/COGS119/group_wi26_verbal_complexity/analysis/../data/raw_data/p0rhsmwrzdd_1772141316795.csv
NA,135736,survey-text,14,2.0.0,548634,p0rhsmwrzdd,NA,NA,NA,"{""image_description"":""an almost rotationally symmetrical figure with two triangular mouths""}",NA,NA,NA,NA,stimuli/89.jpg,medium,NA,an almost rotationally symmetrical figure with two triangular mouths,9,NA,NA,/Users/martincz/GitHub/COGS119/group_wi26_verbal_complexity/analysis/../data/raw_data/p0rhsmwrzdd_1772141316795.csv
NA,11914,survey-text,15,2.0.0,560549,p0rhsmwrzdd,NA,NA,NA,"{""image_description"":""a pentagon pretending to be a triangle""}",NA,NA,NA,NA,stimuli/17.jpg,easy,NA,a pentagon pretending to be a triangle,7,NA,NA,/Users/martincz/GitHub/COGS119/group_wi26_verbal_complexity/analysis/../data/raw_data/p0rhsmwrzdd_1772141316795.csv
NA,123221,survey-text,16,2.0.0,683770,p0rhsmwrzdd,NA,NA,NA,"{""image_description"":""the letter 'H' but distorted so it looks like a fish""}",NA,NA,NA,NA,stimuli/129.jpg,hard,NA,the letter 'H' but distorted so it looks like a fish,11,NA,NA,/Users/martincz/GitHub/COGS119/group_wi26_verbal_complexity/analysis/../data/raw_data/p0rhsmwrzdd_1772141316795.csv
NA,151982,survey-text,17,2.0.0,835751,p0rhsmwrzdd,NA,NA,NA,"{""image_description"":""an 'F' that looks like a duck""}",NA,NA,NA,NA,stimuli/65.jpg,medium,NA,an 'F' that looks like a duck,7,NA,NA,/Users/martincz/GitHub/COGS119/group_wi26_verbal_complexity/analysis/../data/raw_data/p0rhsmwrzdd_1772141316795.csv
NA,20034,survey-text,18,2.0.0,855787,p0rhsmwrzdd,NA,NA,NA,"{""image_description"":""a hexagon that looks like a pointy house or a chapel""}",NA,NA,NA,NA,stimuli/25.jpg,easy,NA,a hexagon that looks like a pointy house or a chapel,11,NA,NA,/Users/martincz/GitHub/COGS119/group_wi26_verbal_complexity/analysis/../data/raw_data/p0rhsmwrzdd_1772141316795.csv
NA,9065,survey-text,19,2.0.0,864853,p0rhsmwrzdd,NA,NA,NA,"{""image_description"":""fish lips""}",NA,NA,NA,NA,stimuli/41.jpg,easy,NA,fish lips,2,NA,NA,/Users/martincz/GitHub/COGS119/group_wi26_verbal_complexity/analysis/../data/raw_data/p0rhsmwrzdd_1772141316795.csv
NA,5763,survey-text,20,2.0.0,870618,p0rhsmwrzdd,NA,NA,NA,"{""image_description"":""a trapezoid""}",NA,NA,NA,NA,stimuli/9.jpg,easy,NA,a trapezoid,2,NA,NA,/Users/martincz/GitHub/COGS119/group_wi26_verbal_complexity/analysis/../data/raw_data/p0rhsmwrzdd_1772141316795.csv
NA,98470,survey-text,21,2.0.0,969087,p0rhsmwrzdd,NA,NA,NA,"{""image_description"":""a cat on two legs holding up his really messed up arms""}",NA,NA,NA,NA,stimuli/137.jpg,hard,NA,a cat on two legs holding up his really messed up arms,12,NA,NA,/Users/martincz/GitHub/COGS119/group_wi26_verbal_complexity/analysis/../data/raw_data/p0rhsmwrzdd_1772141316795.csv
NA,26465,survey-text,22,2.0.0,995553,p0rhsmwrzdd,NA,NA,NA,"{""image_description"":""an exploded house""}",NA,NA,NA,NA,stimuli/153.jpg,hard,NA,an exploded house,3,NA,NA,/Users/martincz/GitHub/COGS119/group_wi26_verbal_complexity/analysis/../data/raw_data/p0rhsmwrzdd_1772141316795.csv
NA,19381,survey-text,23,2.0.0,1014935,p0rhsmwrzdd,NA,NA,NA,"{""image_description"":""a pentagon combined with a triangle at the bottom right""}",NA,NA,NA,NA,stimuli/33.jpg,easy,NA,a pentagon combined with a triangle at the bottom right,10,NA,NA,/Users/martincz/GitHub/COGS119/group_wi26_verbal_complexity/analysis/../data/raw_data/p0rhsmwrzdd_1772141316795.csv
NA,4851,survey-text,24,2.0.0,1019787,p0rhsmwrzdd,NA,NA,NA,"{""participant_major"":""CogSci ML""}",NA,NA,NA,NA,NA,NA,NA,NA,NA,NA,NA,/Users/martincz/GitHub/COGS119/group_wi26_verbal_complexity/analysis/../data/raw_data/p0rhsmwrzdd_1772141316795.csv
NA,1514,survey-multi-choice,25,2.2.0,1021302,p0rhsmwrzdd,NA,NA,NA,"{""participant_gender"":""Male""}",NA,NA,NA,NA,NA,NA,NA,NA,NA,[1],[0],/Users/martincz/GitHub/COGS119/group_wi26_verbal_complexity/analysis/../data/raw_data/p0rhsmwrzdd_1772141316795.csv
TRUE,1524,fullscreen,0,null,2535,p2q02rm778m,NA,NA,NA,NA,NA,NA,NA,NA,NA,NA,NA,NA,NA,NA,NA,/Users/martincz/GitHub/COGS119/group_wi26_verbal_complexity/analysis/../data/raw_data/p2q02rm778m_1772138520613.csv
NA,11170,html-keyboard-response,1,2.0.0,13708,p2q02rm778m,NA,NA,"
    <div>
      <p>Welcome to our experiment!</p>
      <p>In each trial, you will see a shape. Describe the shape as accurately as you can in the provided textbox.</p>
      <p>Your description can be as long or as short as you’d like, from just a few words up to a whole paragraph if you feel that is necessary.</p>
      <p></p>
      <p>The next page will ask for participant ID.</p>
      <p></p>
      <p>After all the trials have been completed, the last page will ask for some demographic information.</p>
      <p></p>
      <p>Once you are ready to start, click any button.</p>
    </div>",",",NA,NA,NA,NA,NA,NA,NA,NA,NA,NA,NA,/Users/martincz/GitHub/COGS119/group_wi26_verbal_complexity/analysis/../data/raw_data/p2q02rm778m_1772138520613.csv
NA,2756,survey-text,2,2.0.0,16468,p2q02rm778m,NA,NA,NA,"{""participant_id"":""horse""}",NA,NA,NA,NA,NA,NA,NA,NA,NA,NA,NA,/Users/martincz/GitHub/COGS119/group_wi26_verbal_complexity/analysis/../data/raw_data/p2q02rm778m_1772138520613.csv
TRUE,NA,preload,3,2.0.0,16630,p2q02rm778m,NA,NA,NA,NA,FALSE,[],[],[],NA,NA,NA,NA,NA,NA,NA,/Users/martincz/GitHub/COGS119/group_wi26_verbal_complexity/analysis/../data/raw_data/p2q02rm778m_1772138520613.csv
NA,46605,survey-text,4,2.0.0,63242,p2q02rm778m,NA,NA,NA,"{""image_description"":""it looks like a narwhal with a horn, a curved body, and a tail. it also has a little ear and a spike on its back""}",NA,NA,NA,NA,stimuli/90.jpg,medium,NA,"it looks like a narwhal with a horn, a curved body, and a tail. it also has a little ear and a spike on its back",26,NA,NA,/Users/martincz/GitHub/COGS119/group_wi26_verbal_complexity/analysis/../data/raw_data/p2q02rm778m_1772138520613.csv
NA,46597,survey-text,5,2.0.0,109842,p2q02rm778m,NA,NA,NA,"{""image_description"":""its roughly rectangle shaped, but with mostly jagged edges instead of straight lines""}",NA,NA,NA,NA,stimuli/82.jpg,medium,NA,"its roughly rectangle shaped, but with mostly jagged edges instead of straight lines",13,NA,NA,/Users/martincz/GitHub/COGS119/group_wi26_verbal_complexity/analysis/../data/raw_data/p2q02rm778m_1772138520613.csv
NA,35019,survey-text,6,2.0.0,144867,p2q02rm778m,NA,NA,NA,"{""image_description"":""on the bottom three sides, it is rectangle shaped, but the top line is jagged with three peaks""}",NA,NA,NA,NA,stimuli/34.jpg,easy,NA,"on the bottom three sides, it is rectangle shaped, but the top line is jagged with three peaks",18,NA,NA,/Users/martincz/GitHub/COGS119/group_wi26_verbal_complexity/analysis/../data/raw_data/p2q02rm778m_1772138520613.csv
NA,36742,survey-text,7,2.0.0,181613,p2q02rm778m,NA,NA,NA,"{""image_description"":""it looks like a triangle with a triangle shaped bite taken out of the top""}",NA,NA,NA,NA,stimuli/26.jpg,easy,NA,it looks like a triangle with a triangle shaped bite taken out of the top,15,NA,NA,/Users/martincz/GitHub/COGS119/group_wi26_verbal_complexity/analysis/../data/raw_data/p2q02rm778m_1772138520613.csv
NA,48656,survey-text,8,2.0.0,230270,p2q02rm778m,NA,NA,NA,"{""image_description"":""it is a six sided shape that looks like the shape of a dirt baseball field. all 6 lines are straight""}",NA,NA,NA,NA,stimuli/18.jpg,easy,NA,it is a six sided shape that looks like the shape of a dirt baseball field. all 6 lines are straight,21,NA,NA,/Users/martincz/GitHub/COGS119/group_wi26_verbal_complexity/analysis/../data/raw_data/p2q02rm778m_1772138520613.csv
NA,62722,survey-text,9,2.0.0,292994,p2q02rm778m,NA,NA,NA,"{""image_description"":""it is roughly a rectangle attached to two triangles. kind of giving hammerhead shark""}",NA,NA,NA,NA,stimuli/98.jpg,medium,NA,it is roughly a rectangle attached to two triangles. kind of giving hammerhead shark,14,NA,NA,/Users/martincz/GitHub/COGS119/group_wi26_verbal_complexity/analysis/../data/raw_data/p2q02rm778m_1772138520613.csv
NA,64095,survey-text,10,2.0.0,357092,p2q02rm778m,NA,NA,NA,"{""image_description"":""it looks like a bird with crazy wings. the bottom is bird shaped with a beak and on top of it is a rectangle shaped wing and on top to the right is a wonky jagged wing""}",NA,NA,NA,NA,stimuli/114.jpg,hard,NA,it looks like a bird with crazy wings. the bottom is bird shaped with a beak and on top of it is a rectangle shaped wing and on top to the right is a wonky jagged wing,37,NA,NA,/Users/martincz/GitHub/COGS119/group_wi26_verbal_complexity/analysis/../data/raw_data/p2q02rm778m_1772138520613.csv
NA,66275,survey-text,11,2.0.0,423369,p2q02rm778m,NA,NA,NA,"{""image_description"":""this shape has a lot of jagged, triangle shaped edges. there is a big triangle on the top and smaller triangles on the roughly square shaped bottom""}",NA,NA,NA,NA,stimuli/138.jpg,hard,NA,"this shape has a lot of jagged, triangle shaped edges. there is a big triangle on the top and smaller triangles on the roughly square shaped bottom",27,NA,NA,/Users/martincz/GitHub/COGS119/group_wi26_verbal_complexity/analysis/../data/raw_data/p2q02rm778m_1772138520613.csv
NA,68048,survey-text,12,2.0.0,491420,p2q02rm778m,NA,NA,NA,"{""image_description"":""it has a jagged wide triangular base with three things coming out of the top. one of those is a triangle, and two are rectangle shaped""}",NA,NA,NA,NA,stimuli/122.jpg,hard,NA,"it has a jagged wide triangular base with three things coming out of the top. one of those is a triangle, and two are rectangle shaped",26,NA,NA,/Users/martincz/GitHub/COGS119/group_wi26_verbal_complexity/analysis/../data/raw_data/p2q02rm778m_1772138520613.csv
NA,42762,survey-text,13,2.0.0,534185,p2q02rm778m,NA,NA,NA,"{""image_description"":""the top is a pentagon and below is a 'leg' coming out of it that is roughly made of two triangles""}",NA,NA,NA,NA,stimuli/42.jpg,easy,NA,the top is a pentagon and below is a 'leg' coming out of it that is roughly made of two triangles,21,NA,NA,/Users/martincz/GitHub/COGS119/group_wi26_verbal_complexity/analysis/../data/raw_data/p2q02rm778m_1772138520613.csv
NA,86700,survey-text,14,2.0.0,620888,p2q02rm778m,NA,NA,NA,"{""image_description"":""it has 16 sides and is kinda giving parallelogram shape if the edges were triangles""}",NA,NA,NA,NA,stimuli/66.jpg,medium,NA,it has 16 sides and is kinda giving parallelogram shape if the edges were triangles,15,NA,NA,/Users/martincz/GitHub/COGS119/group_wi26_verbal_complexity/analysis/../data/raw_data/p2q02rm778m_1772138520613.csv
NA,41922,survey-text,15,2.0.0,662813,p2q02rm778m,NA,NA,NA,"{""image_description"":""it is shaped like a 7 if the top of the number was really thick""}",NA,NA,NA,NA,stimuli/50.jpg,easy,NA,it is shaped like a 7 if the top of the number was really thick,15,NA,NA,/Users/martincz/GitHub/COGS119/group_wi26_verbal_complexity/analysis/../data/raw_data/p2q02rm778m_1772138520613.csv
NA,40096,survey-text,16,2.0.0,702911,p2q02rm778m,NA,NA,NA,"{""image_description"":""it looks like a wolf head. it has a snout and three spikes coming from above that. and an ear above the neck""}",NA,NA,NA,NA,stimuli/74.jpg,medium,NA,it looks like a wolf head. it has a snout and three spikes coming from above that. and an ear above the neck,23,NA,NA,/Users/martincz/GitHub/COGS119/group_wi26_verbal_complexity/analysis/../data/raw_data/p2q02rm778m_1772138520613.csv
NA,53071,survey-text,17,2.0.0,755985,p2q02rm778m,NA,NA,NA,"{""image_description"":""it kinda looks like a ghost with two arms, a whispy bottom body and a horizontal horn coming out of the head""}",NA,NA,NA,NA,stimuli/146.jpg,hard,NA,"it kinda looks like a ghost with two arms, a whispy bottom body and a horizontal horn coming out of the head",22,NA,NA,/Users/martincz/GitHub/COGS119/group_wi26_verbal_complexity/analysis/../data/raw_data/p2q02rm778m_1772138520613.csv
NA,68974,survey-text,18,2.0.0,824961,p2q02rm778m,NA,NA,NA,"{""image_description"":""it has a wide bottom portion. and a taller portion on top of that, but only on the right side. the edges are very jagged""}",NA,NA,NA,NA,stimuli/154.jpg,hard,NA,"it has a wide bottom portion. and a taller portion on top of that, but only on the right side. the edges are very jagged",25,NA,NA,/Users/martincz/GitHub/COGS119/group_wi26_verbal_complexity/analysis/../data/raw_data/p2q02rm778m_1772138520613.csv
NA,44619,survey-text,19,2.0.0,869582,p2q02rm778m,NA,NA,NA,"{""image_description"":""it looks like a dog. there is a dog head and a front leg. the back leg is very wide and there is a short tail sticking straight up""}",NA,NA,NA,NA,stimuli/130.jpg,hard,NA,it looks like a dog. there is a dog head and a front leg. the back leg is very wide and there is a short tail sticking straight up,29,NA,NA,/Users/martincz/GitHub/COGS119/group_wi26_verbal_complexity/analysis/../data/raw_data/p2q02rm778m_1772138520613.csv
NA,89586,survey-text,20,2.0.0,959170,p2q02rm778m,NA,NA,NA,"{""image_description"":""it is roughly triangular, like a wide triangle that has a bite take out of the base""}",NA,NA,NA,NA,stimuli/58.jpg,medium,NA,"it is roughly triangular, like a wide triangle that has a bite take out of the base",17,NA,NA,/Users/martincz/GitHub/COGS119/group_wi26_verbal_complexity/analysis/../data/raw_data/p2q02rm778m_1772138520613.csv
NA,26525,survey-text,21,2.0.0,985698,p2q02rm778m,NA,NA,NA,"{""image_description"":""it looks like a bird with a very fat tail and one leg sticking out in front of it""}",NA,NA,NA,NA,stimuli/106.jpg,medium,NA,it looks like a bird with a very fat tail and one leg sticking out in front of it,19,NA,NA,/Users/martincz/GitHub/COGS119/group_wi26_verbal_complexity/analysis/../data/raw_data/p2q02rm778m_1772138520613.csv
NA,32791,survey-text,22,2.0.0,1018491,p2q02rm778m,NA,NA,NA,"{""image_description"":""it is a quadrilateral with a shorter side on the left and sloped lines on the top and botton""}",NA,NA,NA,NA,stimuli/10.jpg,easy,NA,it is a quadrilateral with a shorter side on the left and sloped lines on the top and botton,19,NA,NA,/Users/martincz/GitHub/COGS119/group_wi26_verbal_complexity/analysis/../data/raw_data/p2q02rm778m_1772138520613.csv
NA,20107,survey-text,23,2.0.0,1038601,p2q02rm778m,NA,NA,NA,"{""image_description"":""it is an isosceles triangle pointing downwards ""}",NA,NA,NA,NA,stimuli/2.jpg,easy,NA,it is an isosceles triangle pointing downwards,7,NA,NA,/Users/martincz/GitHub/COGS119/group_wi26_verbal_complexity/analysis/../data/raw_data/p2q02rm778m_1772138520613.csv
NA,15545,survey-text,24,2.0.0,1054151,p2q02rm778m,NA,NA,NA,"{""participant_major"":""business psychology and cognitive behavioral neuroscience""}",NA,NA,NA,NA,NA,NA,NA,NA,NA,NA,NA,/Users/martincz/GitHub/COGS119/group_wi26_verbal_complexity/analysis/../data/raw_data/p2q02rm778m_1772138520613.csv
NA,2926,survey-multi-choice,25,2.2.0,1057081,p2q02rm778m,NA,NA,NA,"{""participant_gender"":""Female""}",NA,NA,NA,NA,NA,NA,NA,NA,NA,[0],[0],/Users/martincz/GitHub/COGS119/group_wi26_verbal_complexity/analysis/../data/raw_data/p2q02rm778m_1772138520613.csv
TRUE,2653,fullscreen,0,null,3657,p35wkqwct3u,NA,NA,NA,NA,NA,NA,NA,NA,NA,NA,NA,NA,NA,NA,NA,/Users/martincz/GitHub/COGS119/group_wi26_verbal_complexity/analysis/../data/raw_data/p35wkqwct3u_1772139450482.csv
NA,11153,html-keyboard-response,1,2.0.0,14811,p35wkqwct3u,NA,NA,"
    <div>
      <p>Welcome to our experiment!</p>
      <p>In each trial, you will see a shape. Describe the shape as accurately as you can in the provided textbox.</p>
      <p>Your description can be as long or as short as you’d like, from just a few words up to a whole paragraph if you feel that is necessary.</p>
      <p></p>
      <p>The next page will ask for participant ID.</p>
      <p></p>
      <p>After all the trials have been completed, the last page will ask for some demographic information.</p>
      <p></p>
      <p>Once you are ready to start, click any button.</p>
    </div>",NA,NA,NA,NA,NA,NA,NA,NA,NA,NA,NA,NA,/Users/martincz/GitHub/COGS119/group_wi26_verbal_complexity/analysis/../data/raw_data/p35wkqwct3u_1772139450482.csv
NA,2847,survey-text,2,2.0.0,17665,p35wkqwct3u,NA,NA,NA,"{""participant_id"":""hedgehog""}",NA,NA,NA,NA,NA,NA,NA,NA,NA,NA,NA,/Users/martincz/GitHub/COGS119/group_wi26_verbal_complexity/analysis/../data/raw_data/p35wkqwct3u_1772139450482.csv
TRUE,NA,preload,3,2.0.0,17762,p35wkqwct3u,NA,NA,NA,NA,FALSE,[],[],[],NA,NA,NA,NA,NA,NA,NA,/Users/martincz/GitHub/COGS119/group_wi26_verbal_complexity/analysis/../data/raw_data/p35wkqwct3u_1772139450482.csv
NA,243427,survey-text,4,2.0.0,261192,p35wkqwct3u,NA,NA,NA,"{""image_description"":""A shape with 30 sides, has lots of concave and convex angles, it is very abstract. It  has a main body, with small triangles taken out of the top, right, and bottom sides, and what looks like a small, vertical rectangle coming out of the bottom right corner. There is a dog-like silhouette shape that is cut out from upper left corner. It is the shape of the side profile of a dog landing after jumping through a hoop, i.e. facing slightly downwards with the front legs extended below it. The dog has small triangular ears. The cut out is only the first half of the dog. ""}",NA,NA,NA,NA,stimuli/150.jpg,hard,NA,"A shape with 30 sides, has lots of concave and convex angles, it is very abstract. It  has a main body, with small triangles taken out of the top, right, and bottom sides, and what looks like a small, vertical rectangle coming out of the bottom right corner. There is a dog-like silhouette shape that is cut out from upper left corner. It is the shape of the side profile of a dog landing after jumping through a hoop, i.e. facing slightly downwards with the front legs extended below it. The dog has small triangular ears. The cut out is only the first half of the dog.",107,NA,NA,/Users/martincz/GitHub/COGS119/group_wi26_verbal_complexity/analysis/../data/raw_data/p35wkqwct3u_1772139450482.csv
NA,875064,survey-text,5,2.0.0,1136251,p35wkqwct3u,NA,NA,NA,"{""image_description"":""A square if you cut out a bunch of shapes from it. From the bottom left corner, cut off a small 30-60-90 triangle, with the long side corresponding to the right side. Next to that cut out, cut out a trapezoid, where the bottom left of the trapezoid is right next to the bottom right of the previously cut out triangle. The trapezoid will be tall, with the parallel sides being vertical, with a slight right lean.  The long side (base) of the trapezoid extends from next to the first cut triangle up to the halfway point of the square. It should end to the left of the absolute middle of the square. The slanted side of the trapezoid extends back down south east, ending at the same height as the first cut triangle. Extend the next line parallel to the first side of the trapezoid all the way to the bottom. Then cut out a short, obtuse triangle directly to the right of the trapezoid, with the long side corresponding to the bottom edge of the square. This triangle should be the remaining bottom length of the square, and should come up below the top point of the first triangle. From the right side of the square, cut out two small rectangles at around the midline. From the top, split the cut outs to the left and right sides. From the left side, the top corner is cut off. From the right side, a large right triangle is cut out, another 30-60-90, with the hypotenuse being the top side, and the long side extending from the middle of the top side, south east, to meet the short side that starts at the right top corner of the square. From the middle of the long, adjacent side of that 30-60-90 triangle, cut a small obtuse triangle out of the center of the square, where one of the corners overlaps with the cutout of the 30-60-90 triangle. Overall, the shape is vaguely birdlike. ""}",NA,NA,NA,NA,stimuli/158.jpg,hard,NA,"A square if you cut out a bunch of shapes from it. From the bottom left corner, cut off a small 30-60-90 triangle, with the long side corresponding to the right side. Next to that cut out, cut out a trapezoid, where the bottom left of the trapezoid is right next to the bottom right of the previously cut out triangle. The trapezoid will be tall, with the parallel sides being vertical, with a slight right lean.  The long side (base) of the trapezoid extends from next to the first cut triangle up to the halfway point of the square. It should end to the left of the absolute middle of the square. The slanted side of the trapezoid extends back down south east, ending at the same height as the first cut triangle. Extend the next line parallel to the first side of the trapezoid all the way to the bottom. Then cut out a short, obtuse triangle directly to the right of the trapezoid, with the long side corresponding to the bottom edge of the square. This triangle should be the remaining bottom length of the square, and should come up below the top point of the first triangle. From the right side of the square, cut out two small rectangles at around the midline. From the top, split the cut outs to the left and right sides. From the left side, the top corner is cut off. From the right side, a large right triangle is cut out, another 30-60-90, with the hypotenuse being the top side, and the long side extending from the middle of the top side, south east, to meet the short side that starts at the right top corner of the square. From the middle of the long, adjacent side of that 30-60-90 triangle, cut a small obtuse triangle out of the center of the square, where one of the corners overlaps with the cutout of the 30-60-90 triangle. Overall, the shape is vaguely birdlike.",332,NA,NA,/Users/martincz/GitHub/COGS119/group_wi26_verbal_complexity/analysis/../data/raw_data/p35wkqwct3u_1772139450482.csv
NA,79343,survey-text,6,2.0.0,1215597,p35wkqwct3u,NA,NA,NA,"{""image_description"":""The shape looks like the head of a wrench that has the opening facing to the left. There are six faces on the inside of the \""wrench\"". Extending from the top of the wrench is a triangle that makes it look like the wrench has a crest/horn. ""}",NA,NA,NA,NA,stimuli/102.jpg,medium,NA,"The shape looks like the head of a wrench that has the opening facing to the left. There are six faces on the inside of the ""wrench"". Extending from the top of the wrench is a triangle that makes it look like the wrench has a crest/horn.",47,NA,NA,/Users/martincz/GitHub/COGS119/group_wi26_verbal_complexity/analysis/../data/raw_data/p35wkqwct3u_1772139450482.csv
NA,221076,survey-text,7,2.0.0,1436673,p35wkqwct3u,NA,NA,NA,"{""image_description"":""This shape looks like a lopsided heart made with straight lines. The right side of the heart is skinnier, and the bottom edge follows a south-west trajectory that extends past the midline of the heart (thus lopsided heart that is leaning right). The left side of the heart is fatter and has a small knob that extends off the top of the left side. There is a left-facing hook on the bottom. It's pretty sharp and skinny with the end being a skinny triangle that extends past the left edge of the heart. ""}",NA,NA,NA,NA,stimuli/70.jpg,medium,NA,"This shape looks like a lopsided heart made with straight lines. The right side of the heart is skinnier, and the bottom edge follows a south-west trajectory that extends past the midline of the heart (thus lopsided heart that is leaning right). The left side of the heart is fatter and has a small knob that extends off the top of the left side. There is a left-facing hook on the bottom. It's pretty sharp and skinny with the end being a skinny triangle that extends past the left edge of the heart.",93,NA,NA,/Users/martincz/GitHub/COGS119/group_wi26_verbal_complexity/analysis/../data/raw_data/p35wkqwct3u_1772139450482.csv
NA,192300,survey-text,8,2.0.0,1628974,p35wkqwct3u,NA,NA,NA,"{""image_description"":""quadrilateral. the top side is perfectly horizontal. The right side extends down at a 92 degree angle and is about 1.5 times the length of the top side. The bottom side makes a 45 degree angle with the right side and extends in the north west direction, ending slightly past the vertical of the top line (more left than the leftmost point of the top line) The last line connects the top and bottom line, it is a small line extending in the North-north-east direction. ""}",NA,NA,NA,NA,stimuli/6.jpg,easy,NA,"quadrilateral. the top side is perfectly horizontal. The right side extends down at a 92 degree angle and is about 1.5 times the length of the top side. The bottom side makes a 45 degree angle with the right side and extends in the north west direction, ending slightly past the vertical of the top line (more left than the leftmost point of the top line) The last line connects the top and bottom line, it is a small line extending in the North-north-east direction.",85,NA,NA,/Users/martincz/GitHub/COGS119/group_wi26_verbal_complexity/analysis/../data/raw_data/p35wkqwct3u_1772139450482.csv
NA,325026,survey-text,9,2.0.0,1954000,p35wkqwct3u,NA,NA,NA,"{""image_description"":""Looks like a crude, poly outline of Bluey from that one TV show with angel wings. If  Bluey's bottom half/legs were just one rectangle. Bluey is facing to the left, so the corresponding rectangle is on the left side. The wings extend from halfway down the right side of the body, and is made of two shapes, an equilateral triangle and a diamond. One point of the equilateral triangle is intersecting with Bluey's rectangular body. The triangle is also slightly rotated to the right, so the next point on the triangle would point to the top right. This triangle point is cut off, like the top of the pyramid on the one-dollar bill. The last point of the triangle (the bottom-most one) is where the skinny diamond intersects, such that it's almost vertical, with a skinny end pointing towards the ground.""}",NA,NA,NA,NA,stimuli/110.jpg,hard,NA,"Looks like a crude, poly outline of Bluey from that one TV show with angel wings. If  Bluey's bottom half/legs were just one rectangle. Bluey is facing to the left, so the corresponding rectangle is on the left side. The wings extend from halfway down the right side of the body, and is made of two shapes, an equilateral triangle and a diamond. One point of the equilateral triangle is intersecting with Bluey's rectangular body. The triangle is also slightly rotated to the right, so the next point on the triangle would point to the top right. This triangle point is cut off, like the top of the pyramid on the one-dollar bill. The last point of the triangle (the bottom-most one) is where the skinny diamond intersects, such that it's almost vertical, with a skinny end pointing towards the ground.",141,NA,NA,/Users/martincz/GitHub/COGS119/group_wi26_verbal_complexity/analysis/../data/raw_data/p35wkqwct3u_1772139450482.csv
NA,209972,survey-text,10,2.0.0,2163975,p35wkqwct3u,NA,NA,NA,"{""image_description"":""the shape looks like lots of triangles. Start off with an ice cream cone. Put one equilateral triangle on top of that, and then add another triangle on either side of that first triangle. then have trapezoids extend down and out from those added triangles, next to the ice cream cone. Think anime hair. Should be fairly symmetrical. Then mess with it a little so it's not perfectly symmetrical, with the right side being bigger/hair-thing longer. Tilt the entire shape to the right.""}",NA,NA,NA,NA,stimuli/86.jpg,medium,NA,"the shape looks like lots of triangles. Start off with an ice cream cone. Put one equilateral triangle on top of that, and then add another triangle on either side of that first triangle. then have trapezoids extend down and out from those added triangles, next to the ice cream cone. Think anime hair. Should be fairly symmetrical. Then mess with it a little so it's not perfectly symmetrical, with the right side being bigger/hair-thing longer. Tilt the entire shape to the right.",83,NA,NA,/Users/martincz/GitHub/COGS119/group_wi26_verbal_complexity/analysis/../data/raw_data/p35wkqwct3u_1772139450482.csv
NA,160564,survey-text,11,2.0.0,2324540,p35wkqwct3u,NA,NA,NA,"{""image_description"":""Rectangle, but cut off most of the right side and tilt it upwards slightly. The remaining right side of the rectangle is hooked downwards, such that it looks like there is an obtuse triangle cut out from the remaining bottom right side of the rectangle, and the hook itself is an obtuse triangle with the long side being almost perfectly vertical with a slight left lean. ""}",NA,NA,NA,NA,stimuli/38.jpg,easy,NA,"Rectangle, but cut off most of the right side and tilt it upwards slightly. The remaining right side of the rectangle is hooked downwards, such that it looks like there is an obtuse triangle cut out from the remaining bottom right side of the rectangle, and the hook itself is an obtuse triangle with the long side being almost perfectly vertical with a slight left lean.",66,NA,NA,/Users/martincz/GitHub/COGS119/group_wi26_verbal_complexity/analysis/../data/raw_data/p35wkqwct3u_1772139450482.csv
NA,134488,survey-text,12,2.0.0,2459030,p35wkqwct3u,NA,NA,NA,"{""image_description"":""Take a knights banner, a tall rectangle with a triangle cut out from the bottom. Then pretend you are viewing it from above, where its still blowing in the wind. It should look like a lopsided square with an obtuse triangle cut out from the bottom. ""}",NA,NA,NA,NA,stimuli/22.jpg,easy,NA,"Take a knights banner, a tall rectangle with a triangle cut out from the bottom. Then pretend you are viewing it from above, where its still blowing in the wind. It should look like a lopsided square with an obtuse triangle cut out from the bottom.",46,NA,NA,/Users/martincz/GitHub/COGS119/group_wi26_verbal_complexity/analysis/../data/raw_data/p35wkqwct3u_1772139450482.csv
NA,103363,survey-text,13,2.0.0,2562394,p35wkqwct3u,NA,NA,NA,"{""image_description"":""Weird shape with 3 major obtrusions. The obtrusions have a counter-clockwise facing hook on the end, kinda like ninja stars. Except the fattest obtrusion splits its outside edge into two hooks, so one hook facing each direction""}",NA,NA,NA,NA,stimuli/94.jpg,medium,NA,"Weird shape with 3 major obtrusions. The obtrusions have a counter-clockwise facing hook on the end, kinda like ninja stars. Except the fattest obtrusion splits its outside edge into two hooks, so one hook facing each direction",37,NA,NA,/Users/martincz/GitHub/COGS119/group_wi26_verbal_complexity/analysis/../data/raw_data/p35wkqwct3u_1772139450482.csv
NA,26538,survey-text,14,2.0.0,2588935,p35wkqwct3u,NA,NA,NA,"{""image_description"":""trapezoid with bottom left corner cut off slightly""}",NA,NA,NA,NA,stimuli/14.jpg,easy,NA,trapezoid with bottom left corner cut off slightly,8,NA,NA,/Users/martincz/GitHub/COGS119/group_wi26_verbal_complexity/analysis/../data/raw_data/p35wkqwct3u_1772139450482.csv
NA,84664,survey-text,15,2.0.0,2673601,p35wkqwct3u,NA,NA,NA,"{""image_description"":""square body in the top left with a trapezoid cut out from the left side. Extend shape out to the right with two icicles extending down and one triangle extending up""}",NA,NA,NA,NA,stimuli/118.jpg,hard,NA,square body in the top left with a trapezoid cut out from the left side. Extend shape out to the right with two icicles extending down and one triangle extending up,31,NA,NA,/Users/martincz/GitHub/COGS119/group_wi26_verbal_complexity/analysis/../data/raw_data/p35wkqwct3u_1772139450482.csv
NA,73169,survey-text,16,2.0.0,2746771,p35wkqwct3u,NA,NA,NA,"{""image_description"":""take a square and cut out a mermaid tail. ie the tail is somewhat in the middle of the square and the base is on the bottom side. Cut out a bunch of triangles from the rest of the sides. and a couple trapeziods""}",NA,NA,NA,NA,stimuli/126.jpg,hard,NA,take a square and cut out a mermaid tail. ie the tail is somewhat in the middle of the square and the base is on the bottom side. Cut out a bunch of triangles from the rest of the sides. and a couple trapeziods,44,NA,NA,/Users/martincz/GitHub/COGS119/group_wi26_verbal_complexity/analysis/../data/raw_data/p35wkqwct3u_1772139450482.csv
NA,39496,survey-text,17,2.0.0,2786269,p35wkqwct3u,NA,NA,NA,"{""image_description"":""fortune cookie type shape, so somewhat circular thing made with straight lines. then one crevice that starts from the right side. ""}",NA,NA,NA,NA,stimuli/62.jpg,medium,NA,"fortune cookie type shape, so somewhat circular thing made with straight lines. then one crevice that starts from the right side.",21,NA,NA,/Users/martincz/GitHub/COGS119/group_wi26_verbal_complexity/analysis/../data/raw_data/p35wkqwct3u_1772139450482.csv
NA,81696,survey-text,18,2.0.0,2868035,p35wkqwct3u,NA,NA,NA,"{""image_description"":""figure with two obtuse triangle feet (that kinda overlap), one rectangle arm on the right, one triangle arm on the left, and a square head, topped with a WIDE witch's hat. (stretch the sorting hat)""}",NA,NA,NA,NA,stimuli/142.jpg,hard,NA,"figure with two obtuse triangle feet (that kinda overlap), one rectangle arm on the right, one triangle arm on the left, and a square head, topped with a WIDE witch's hat. (stretch the sorting hat)",35,NA,NA,/Users/martincz/GitHub/COGS119/group_wi26_verbal_complexity/analysis/../data/raw_data/p35wkqwct3u_1772139450482.csv
NA,74853,survey-text,19,2.0.0,2942891,p35wkqwct3u,NA,NA,NA,"{""image_description"":""Take the block letter of 'M'. Attach a rectangle on the left side, and varaious triangles on the right. Cut out a small triangle from the inside edge of the right side of the M. Turn it 90 degrees clockwise so it's on the side. ""}",NA,NA,NA,NA,stimuli/134.jpg,hard,NA,"Take the block letter of 'M'. Attach a rectangle on the left side, and varaious triangles on the right. Cut out a small triangle from the inside edge of the right side of the M. Turn it 90 degrees clockwise so it's on the side.",45,NA,NA,/Users/martincz/GitHub/COGS119/group_wi26_verbal_complexity/analysis/../data/raw_data/p35wkqwct3u_1772139450482.csv
NA,40777,survey-text,20,2.0.0,2983670,p35wkqwct3u,NA,NA,NA,"{""image_description"":""Looks like a very fat V that is not very deep. Almost like those softly curved water pitchers. ""}",NA,NA,NA,NA,stimuli/30.jpg,easy,NA,Looks like a very fat V that is not very deep. Almost like those softly curved water pitchers.,18,NA,NA,/Users/martincz/GitHub/COGS119/group_wi26_verbal_complexity/analysis/../data/raw_data/p35wkqwct3u_1772139450482.csv
NA,128053,survey-text,21,2.0.0,3111726,p35wkqwct3u,NA,NA,NA,"{""image_description"":""4 obtuse triangles mashed into each other. \nOne in the middle has the long side facing up. There is one on top that also has the long side facing up, but it is smaller. There is one of the left that extends down (like a hook) from the left point of the middle triangle. One more triangle makes the base, but it is more of a large right triangle that has one adjacent side horizontal to the ground and attaches to the middle triangle with its top most point.""}",NA,NA,NA,NA,stimuli/78.jpg,medium,NA,"4 obtuse triangles mashed into each other. 
One in the middle has the long side facing up. There is one on top that also has the long side facing up, but it is smaller. There is one of the left that extends down (like a hook) from the left point of the middle triangle. One more triangle makes the base, but it is more of a large right triangle that has one adjacent side horizontal to the ground and attaches to the middle triangle with its top most point.",89,NA,NA,/Users/martincz/GitHub/COGS119/group_wi26_verbal_complexity/analysis/../data/raw_data/p35wkqwct3u_1772139450482.csv
NA,5174,survey-text,22,2.0.0,3116902,p35wkqwct3u,NA,NA,NA,"{""image_description"":""ohio""}",NA,NA,NA,NA,stimuli/54.jpg,medium,NA,ohio,1,NA,NA,/Users/martincz/GitHub/COGS119/group_wi26_verbal_complexity/analysis/../data/raw_data/p35wkqwct3u_1772139450482.csv
NA,35645,survey-text,23,2.0.0,3152549,p35wkqwct3u,NA,NA,NA,"{""image_description"":""take a square and cut out triangles from the bottom and right sides. ""}",NA,NA,NA,NA,stimuli/46.jpg,easy,NA,take a square and cut out triangles from the bottom and right sides.,13,NA,NA,/Users/martincz/GitHub/COGS119/group_wi26_verbal_complexity/analysis/../data/raw_data/p35wkqwct3u_1772139450482.csv
NA,11881,survey-text,24,2.0.0,3164433,p35wkqwct3u,NA,NA,NA,"{""participant_major"":""Cognitive Behavioral Neuroscience""}",NA,NA,NA,NA,NA,NA,NA,NA,NA,NA,NA,/Users/martincz/GitHub/COGS119/group_wi26_verbal_complexity/analysis/../data/raw_data/p35wkqwct3u_1772139450482.csv
NA,1367,survey-multi-choice,25,2.2.0,3165802,p35wkqwct3u,NA,NA,NA,"{""participant_gender"":""Female""}",NA,NA,NA,NA,NA,NA,NA,NA,NA,[0],[0],/Users/martincz/GitHub/COGS119/group_wi26_verbal_complexity/analysis/../data/raw_data/p35wkqwct3u_1772139450482.csv
TRUE,1150,fullscreen,0,null,2154,p5npy6pcy3q,NA,NA,NA,NA,NA,NA,NA,NA,NA,NA,NA,NA,NA,NA,NA,/Users/martincz/GitHub/COGS119/group_wi26_verbal_complexity/analysis/../data/raw_data/p5npy6pcy3q_1772141802808.csv
NA,7126,html-keyboard-response,1,2.0.0,9284,p5npy6pcy3q,NA,NA,"
    <div>
      <p>Welcome to our experiment!</p>
      <p>In each trial, you will see a shape. Describe the shape as accurately as you can in the provided textbox.</p>
      <p>Your description can be as long or as short as you’d like, from just a few words up to a whole paragraph if you feel that is necessary.</p>
      <p></p>
      <p>The next page will ask for participant ID.</p>
      <p></p>
      <p>After all the trials have been completed, the last page will ask for some demographic information.</p>
      <p></p>
      <p>Once you are ready to start, click any button.</p>
    </div>",NA,NA,NA,NA,NA,NA,NA,NA,NA,NA,NA,NA,/Users/martincz/GitHub/COGS119/group_wi26_verbal_complexity/analysis/../data/raw_data/p5npy6pcy3q_1772141802808.csv
NA,1998,survey-text,2,2.0.0,11289,p5npy6pcy3q,NA,NA,NA,"{""participant_id"":""frog""}",NA,NA,NA,NA,NA,NA,NA,NA,NA,NA,NA,/Users/martincz/GitHub/COGS119/group_wi26_verbal_complexity/analysis/../data/raw_data/p5npy6pcy3q_1772141802808.csv
TRUE,NA,preload,3,2.0.0,11450,p5npy6pcy3q,NA,NA,NA,NA,FALSE,[],[],[],NA,NA,NA,NA,NA,NA,NA,/Users/martincz/GitHub/COGS119/group_wi26_verbal_complexity/analysis/../data/raw_data/p5npy6pcy3q_1772141802808.csv
NA,4171,survey-text,4,2.0.0,15626,p5npy6pcy3q,NA,NA,NA,"{""image_description"":""tri\n""}",NA,NA,NA,NA,stimuli/4.jpg,easy,NA,"tri
",1,NA,NA,/Users/martincz/GitHub/COGS119/group_wi26_verbal_complexity/analysis/../data/raw_data/p5npy6pcy3q_1772141802808.csv
NA,5141,survey-text,5,2.0.0,20768,p5npy6pcy3q,NA,NA,NA,"{""image_description"":""shape""}",NA,NA,NA,NA,stimuli/108.jpg,hard,NA,shape,1,NA,NA,/Users/martincz/GitHub/COGS119/group_wi26_verbal_complexity/analysis/../data/raw_data/p5npy6pcy3q_1772141802808.csv
NA,3348,survey-text,6,2.0.0,24118,p5npy6pcy3q,NA,NA,NA,"{""image_description"":""shape""}",NA,NA,NA,NA,stimuli/44.jpg,easy,NA,shape,1,NA,NA,/Users/martincz/GitHub/COGS119/group_wi26_verbal_complexity/analysis/../data/raw_data/p5npy6pcy3q_1772141802808.csv
NA,2232,survey-text,7,2.0.0,26352,p5npy6pcy3q,NA,NA,NA,"{""image_description"":""shape""}",NA,NA,NA,NA,stimuli/60.jpg,medium,NA,shape,1,NA,NA,/Users/martincz/GitHub/COGS119/group_wi26_verbal_complexity/analysis/../data/raw_data/p5npy6pcy3q_1772141802808.csv
NA,2015,survey-text,8,2.0.0,28368,p5npy6pcy3q,NA,NA,NA,"{""image_description"":""shape""}",NA,NA,NA,NA,stimuli/100.jpg,medium,NA,shape,1,NA,NA,/Users/martincz/GitHub/COGS119/group_wi26_verbal_complexity/analysis/../data/raw_data/p5npy6pcy3q_1772141802808.csv
NA,1965,survey-text,9,2.0.0,30335,p5npy6pcy3q,NA,NA,NA,"{""image_description"":""shape""}",NA,NA,NA,NA,stimuli/124.jpg,hard,NA,shape,1,NA,NA,/Users/martincz/GitHub/COGS119/group_wi26_verbal_complexity/analysis/../data/raw_data/p5npy6pcy3q_1772141802808.csv
NA,2166,survey-text,10,2.0.0,32502,p5npy6pcy3q,NA,NA,NA,"{""image_description"":""shape""}",NA,NA,NA,NA,stimuli/52.jpg,easy,NA,shape,1,NA,NA,/Users/martincz/GitHub/COGS119/group_wi26_verbal_complexity/analysis/../data/raw_data/p5npy6pcy3q_1772141802808.csv
NA,2098,survey-text,11,2.0.0,34602,p5npy6pcy3q,NA,NA,NA,"{""image_description"":""shape""}",NA,NA,NA,NA,stimuli/116.jpg,hard,NA,shape,1,NA,NA,/Users/martincz/GitHub/COGS119/group_wi26_verbal_complexity/analysis/../data/raw_data/p5npy6pcy3q_1772141802808.csv
NA,1848,survey-text,12,2.0.0,36452,p5npy6pcy3q,NA,NA,NA,"{""image_description"":""shape""}",NA,NA,NA,NA,stimuli/92.jpg,medium,NA,shape,1,NA,NA,/Users/martincz/GitHub/COGS119/group_wi26_verbal_complexity/analysis/../data/raw_data/p5npy6pcy3q_1772141802808.csv
NA,8365,survey-text,13,2.0.0,44819,p5npy6pcy3q,NA,NA,NA,"{""image_description"":""almost square""}",NA,NA,NA,NA,stimuli/20.jpg,easy,NA,almost square,2,NA,NA,/Users/martincz/GitHub/COGS119/group_wi26_verbal_complexity/analysis/../data/raw_data/p5npy6pcy3q_1772141802808.csv
NA,3549,survey-text,14,2.0.0,48369,p5npy6pcy3q,NA,NA,NA,"{""image_description"":""shape""}",NA,NA,NA,NA,stimuli/36.jpg,easy,NA,shape,1,NA,NA,/Users/martincz/GitHub/COGS119/group_wi26_verbal_complexity/analysis/../data/raw_data/p5npy6pcy3q_1772141802808.csv
NA,2665,survey-text,15,2.0.0,51036,p5npy6pcy3q,NA,NA,NA,"{""image_description"":""shape""}",NA,NA,NA,NA,stimuli/148.jpg,hard,NA,shape,1,NA,NA,/Users/martincz/GitHub/COGS119/group_wi26_verbal_complexity/analysis/../data/raw_data/p5npy6pcy3q_1772141802808.csv
NA,3582,survey-text,16,2.0.0,54619,p5npy6pcy3q,NA,NA,NA,"{""image_description"":""shape""}",NA,NA,NA,NA,stimuli/68.jpg,medium,NA,shape,1,NA,NA,/Users/martincz/GitHub/COGS119/group_wi26_verbal_complexity/analysis/../data/raw_data/p5npy6pcy3q_1772141802808.csv
NA,8115,survey-text,17,2.0.0,62736,p5npy6pcy3q,NA,NA,NA,"{""image_description"":""almost triangle""}",NA,NA,NA,NA,stimuli/12.jpg,easy,NA,almost triangle,2,NA,NA,/Users/martincz/GitHub/COGS119/group_wi26_verbal_complexity/analysis/../data/raw_data/p5npy6pcy3q_1772141802808.csv
NA,3181,survey-text,18,2.0.0,65919,p5npy6pcy3q,NA,NA,NA,"{""image_description"":""shape""}",NA,NA,NA,NA,stimuli/132.jpg,hard,NA,shape,1,NA,NA,/Users/martincz/GitHub/COGS119/group_wi26_verbal_complexity/analysis/../data/raw_data/p5npy6pcy3q_1772141802808.csv
NA,4115,survey-text,19,2.0.0,70036,p5npy6pcy3q,NA,NA,NA,"{""image_description"":""pointer""}",NA,NA,NA,NA,stimuli/28.jpg,easy,NA,pointer,1,NA,NA,/Users/martincz/GitHub/COGS119/group_wi26_verbal_complexity/analysis/../data/raw_data/p5npy6pcy3q_1772141802808.csv
NA,2748,survey-text,20,2.0.0,72786,p5npy6pcy3q,NA,NA,NA,"{""image_description"":""shape""}",NA,NA,NA,NA,stimuli/84.jpg,medium,NA,shape,1,NA,NA,/Users/martincz/GitHub/COGS119/group_wi26_verbal_complexity/analysis/../data/raw_data/p5npy6pcy3q_1772141802808.csv
NA,2332,survey-text,21,2.0.0,75119,p5npy6pcy3q,NA,NA,NA,"{""image_description"":""shape""}",NA,NA,NA,NA,stimuli/76.jpg,medium,NA,shape,1,NA,NA,/Users/martincz/GitHub/COGS119/group_wi26_verbal_complexity/analysis/../data/raw_data/p5npy6pcy3q_1772141802808.csv
NA,4316,survey-text,22,2.0.0,79436,p5npy6pcy3q,NA,NA,NA,"{""image_description"":""bird like""}",NA,NA,NA,NA,stimuli/156.jpg,hard,NA,bird like,2,NA,NA,/Users/martincz/GitHub/COGS119/group_wi26_verbal_complexity/analysis/../data/raw_data/p5npy6pcy3q_1772141802808.csv
NA,2865,survey-text,23,2.0.0,82303,p5npy6pcy3q,NA,NA,NA,"{""image_description"":""shape""}",NA,NA,NA,NA,stimuli/140.jpg,hard,NA,shape,1,NA,NA,/Users/martincz/GitHub/COGS119/group_wi26_verbal_complexity/analysis/../data/raw_data/p5npy6pcy3q_1772141802808.csv
NA,8549,survey-text,24,2.0.0,90854,p5npy6pcy3q,NA,NA,NA,"{""participant_major"":""Cognitive Science""}",NA,NA,NA,NA,NA,NA,NA,NA,NA,NA,NA,/Users/martincz/GitHub/COGS119/group_wi26_verbal_complexity/analysis/../data/raw_data/p5npy6pcy3q_1772141802808.csv
NA,1481,survey-multi-choice,25,2.2.0,92338,p5npy6pcy3q,NA,NA,NA,"{""participant_gender"":""Female""}",NA,NA,NA,NA,NA,NA,NA,NA,NA,[0],[0],/Users/martincz/GitHub/COGS119/group_wi26_verbal_complexity/analysis/../data/raw_data/p5npy6pcy3q_1772141802808.csv
TRUE,174468,fullscreen,0,null,175476,p5xaudz7qwz,NA,NA,NA,NA,NA,NA,NA,NA,NA,NA,NA,NA,NA,NA,NA,/Users/martincz/GitHub/COGS119/group_wi26_verbal_complexity/analysis/../data/raw_data/p5xaudz7qwz_1772139802009.csv
NA,10011,html-keyboard-response,1,2.0.0,185492,p5xaudz7qwz,NA,NA,"
    <div>
      <p>Welcome to our experiment!</p>
      <p>In each trial, you will see a shape. Describe the shape as accurately as you can in the provided textbox.</p>
      <p>Your description can be as long or as short as you’d like, from just a few words up to a whole paragraph if you feel that is necessary.</p>
      <p></p>
      <p>The next page will ask for participant ID.</p>
      <p></p>
      <p>After all the trials have been completed, the last page will ask for some demographic information.</p>
      <p></p>
      <p>Once you are ready to start, click any button.</p>
    </div>",j,NA,NA,NA,NA,NA,NA,NA,NA,NA,NA,NA,/Users/martincz/GitHub/COGS119/group_wi26_verbal_complexity/analysis/../data/raw_data/p5xaudz7qwz_1772139802009.csv
NA,12591,survey-text,2,2.0.0,198092,p5xaudz7qwz,NA,NA,NA,"{""participant_id"":""deer""}",NA,NA,NA,NA,NA,NA,NA,NA,NA,NA,NA,/Users/martincz/GitHub/COGS119/group_wi26_verbal_complexity/analysis/../data/raw_data/p5xaudz7qwz_1772139802009.csv
TRUE,NA,preload,3,2.0.0,198283,p5xaudz7qwz,NA,NA,NA,NA,FALSE,[],[],[],NA,NA,NA,NA,NA,NA,NA,/Users/martincz/GitHub/COGS119/group_wi26_verbal_complexity/analysis/../data/raw_data/p5xaudz7qwz_1772139802009.csv
NA,17730,survey-text,4,2.0.0,216024,p5xaudz7qwz,NA,NA,NA,"{""image_description"":""square with an arrow pointing out of it""}",NA,NA,NA,NA,stimuli/67.jpg,medium,NA,square with an arrow pointing out of it,8,NA,NA,/Users/martincz/GitHub/COGS119/group_wi26_verbal_complexity/analysis/../data/raw_data/p5xaudz7qwz_1772139802009.csv
NA,16413,survey-text,5,2.0.0,232441,p5xaudz7qwz,NA,NA,NA,"{""image_description"":""Like a grenade that got cut around the edges""}",NA,NA,NA,NA,stimuli/107.jpg,hard,NA,Like a grenade that got cut around the edges,9,NA,NA,/Users/martincz/GitHub/COGS119/group_wi26_verbal_complexity/analysis/../data/raw_data/p5xaudz7qwz_1772139802009.csv
NA,14379,survey-text,6,2.0.0,246824,p5xaudz7qwz,NA,NA,NA,"{""image_description"":""A little man dancing with a hat on""}",NA,NA,NA,NA,stimuli/147.jpg,hard,NA,A little man dancing with a hat on,8,NA,NA,/Users/martincz/GitHub/COGS119/group_wi26_verbal_complexity/analysis/../data/raw_data/p5xaudz7qwz_1772139802009.csv
NA,11013,survey-text,7,2.0.0,257840,p5xaudz7qwz,NA,NA,NA,"{""image_description"":""a fox head with very pointy ears\n""}",NA,NA,NA,NA,stimuli/123.jpg,hard,NA,"a fox head with very pointy ears
",7,NA,NA,/Users/martincz/GitHub/COGS119/group_wi26_verbal_complexity/analysis/../data/raw_data/p5xaudz7qwz_1772139802009.csv
NA,9281,survey-text,8,2.0.0,267125,p5xaudz7qwz,NA,NA,NA,"{""image_description"":""sonic the hedgehog""}",NA,NA,NA,NA,stimuli/131.jpg,hard,NA,sonic the hedgehog,3,NA,NA,/Users/martincz/GitHub/COGS119/group_wi26_verbal_complexity/analysis/../data/raw_data/p5xaudz7qwz_1772139802009.csv
NA,23463,survey-text,9,2.0.0,290591,p5xaudz7qwz,NA,NA,NA,"{""image_description"":""like someone falling from a plane upside down""}",NA,NA,NA,NA,stimuli/115.jpg,hard,NA,like someone falling from a plane upside down,8,NA,NA,/Users/martincz/GitHub/COGS119/group_wi26_verbal_complexity/analysis/../data/raw_data/p5xaudz7qwz_1772139802009.csv
NA,17813,survey-text,10,2.0.0,308408,p5xaudz7qwz,NA,NA,NA,"{""image_description"":""a square with an arrow cut into it""}",NA,NA,NA,NA,stimuli/91.jpg,medium,NA,a square with an arrow cut into it,8,NA,NA,/Users/martincz/GitHub/COGS119/group_wi26_verbal_complexity/analysis/../data/raw_data/p5xaudz7qwz_1772139802009.csv
NA,9130,survey-text,11,2.0.0,317541,p5xaudz7qwz,NA,NA,NA,"{""image_description"":""a fish""}",NA,NA,NA,NA,stimuli/51.jpg,easy,NA,a fish,2,NA,NA,/Users/martincz/GitHub/COGS119/group_wi26_verbal_complexity/analysis/../data/raw_data/p5xaudz7qwz_1772139802009.csv
NA,6730,survey-text,12,2.0.0,324274,p5xaudz7qwz,NA,NA,NA,"{""image_description"":""rectangle kinda""}",NA,NA,NA,NA,stimuli/35.jpg,easy,NA,rectangle kinda,2,NA,NA,/Users/martincz/GitHub/COGS119/group_wi26_verbal_complexity/analysis/../data/raw_data/p5xaudz7qwz_1772139802009.csv
NA,3264,survey-text,13,2.0.0,327541,p5xaudz7qwz,NA,NA,NA,"{""image_description"":""diamond""}",NA,NA,NA,NA,stimuli/11.jpg,easy,NA,diamond,1,NA,NA,/Users/martincz/GitHub/COGS119/group_wi26_verbal_complexity/analysis/../data/raw_data/p5xaudz7qwz_1772139802009.csv
NA,3114,survey-text,14,2.0.0,330658,p5xaudz7qwz,NA,NA,NA,"{""image_description"":""triangle\n""}",NA,NA,NA,NA,stimuli/3.jpg,easy,NA,"triangle
",1,NA,NA,/Users/martincz/GitHub/COGS119/group_wi26_verbal_complexity/analysis/../data/raw_data/p5xaudz7qwz_1772139802009.csv
NA,13331,survey-text,15,2.0.0,343992,p5xaudz7qwz,NA,NA,NA,"{""image_description"":""wind up toy monkey""}",NA,NA,NA,NA,stimuli/139.jpg,hard,NA,wind up toy monkey,4,NA,NA,/Users/martincz/GitHub/COGS119/group_wi26_verbal_complexity/analysis/../data/raw_data/p5xaudz7qwz_1772139802009.csv
NA,16697,survey-text,16,2.0.0,360692,p5xaudz7qwz,NA,NA,NA,"{""image_description"":""arrow sign upside down""}",NA,NA,NA,NA,stimuli/27.jpg,easy,NA,arrow sign upside down,4,NA,NA,/Users/martincz/GitHub/COGS119/group_wi26_verbal_complexity/analysis/../data/raw_data/p5xaudz7qwz_1772139802009.csv
NA,72264,survey-text,17,2.0.0,432959,p5xaudz7qwz,NA,NA,NA,"{""image_description"":""A foldable lamp hanging down with SOMETHING hanging out of it""}",NA,NA,NA,NA,stimuli/99.jpg,medium,NA,A foldable lamp hanging down with SOMETHING hanging out of it,11,NA,NA,/Users/martincz/GitHub/COGS119/group_wi26_verbal_complexity/analysis/../data/raw_data/p5xaudz7qwz_1772139802009.csv
NA,9764,survey-text,18,2.0.0,442725,p5xaudz7qwz,NA,NA,NA,"{""image_description"":""a gun thats slightly melted""}",NA,NA,NA,NA,stimuli/43.jpg,easy,NA,a gun thats slightly melted,5,NA,NA,/Users/martincz/GitHub/COGS119/group_wi26_verbal_complexity/analysis/../data/raw_data/p5xaudz7qwz_1772139802009.csv
NA,8247,survey-text,19,2.0.0,450975,p5xaudz7qwz,NA,NA,NA,"{""image_description"":""a gun that isn't melted""}",NA,NA,NA,NA,stimuli/19.jpg,easy,NA,a gun that isn't melted,5,NA,NA,/Users/martincz/GitHub/COGS119/group_wi26_verbal_complexity/analysis/../data/raw_data/p5xaudz7qwz_1772139802009.csv
NA,17382,survey-text,20,2.0.0,468359,p5xaudz7qwz,NA,NA,NA,"{""image_description"":""aang from avatar's head""}",NA,NA,NA,NA,stimuli/83.jpg,medium,NA,aang from avatar's head,4,NA,NA,/Users/martincz/GitHub/COGS119/group_wi26_verbal_complexity/analysis/../data/raw_data/p5xaudz7qwz_1772139802009.csv
NA,5463,survey-text,21,2.0.0,473825,p5xaudz7qwz,NA,NA,NA,"{""image_description"":""the letter m""}",NA,NA,NA,NA,stimuli/59.jpg,medium,NA,the letter m,3,NA,NA,/Users/martincz/GitHub/COGS119/group_wi26_verbal_complexity/analysis/../data/raw_data/p5xaudz7qwz_1772139802009.csv
NA,4997,survey-text,22,2.0.0,478826,p5xaudz7qwz,NA,NA,NA,"{""image_description"":""a flying bird""}",NA,NA,NA,NA,stimuli/75.jpg,medium,NA,a flying bird,3,NA,NA,/Users/martincz/GitHub/COGS119/group_wi26_verbal_complexity/analysis/../data/raw_data/p5xaudz7qwz_1772139802009.csv
NA,26430,survey-text,23,2.0.0,505259,p5xaudz7qwz,NA,NA,NA,"{""image_description"":""a witch on a broomstick""}",NA,NA,NA,NA,stimuli/155.jpg,hard,NA,a witch on a broomstick,5,NA,NA,/Users/martincz/GitHub/COGS119/group_wi26_verbal_complexity/analysis/../data/raw_data/p5xaudz7qwz_1772139802009.csv
NA,4630,survey-text,24,2.0.0,509892,p5xaudz7qwz,NA,NA,NA,"{""participant_major"":""Cognitive Science""}",NA,NA,NA,NA,NA,NA,NA,NA,NA,NA,NA,/Users/martincz/GitHub/COGS119/group_wi26_verbal_complexity/analysis/../data/raw_data/p5xaudz7qwz_1772139802009.csv
NA,1683,survey-multi-choice,25,2.2.0,511578,p5xaudz7qwz,NA,NA,NA,"{""participant_gender"":""Female""}",NA,NA,NA,NA,NA,NA,NA,NA,NA,[0],[0],/Users/martincz/GitHub/COGS119/group_wi26_verbal_complexity/analysis/../data/raw_data/p5xaudz7qwz_1772139802009.csv
TRUE,6651,fullscreen,0,null,7656,p6jr3lbn8z7,NA,NA,NA,NA,NA,NA,NA,NA,NA,NA,NA,NA,NA,NA,NA,/Users/martincz/GitHub/COGS119/group_wi26_verbal_complexity/analysis/../data/raw_data/p6jr3lbn8z7_1772139163612.csv
NA,9822,html-keyboard-response,1,2.0.0,17480,p6jr3lbn8z7,NA,NA,"
    <div>
      <p>Welcome to our experiment!</p>
      <p>In each trial, you will see a shape. Describe the shape as accurately as you can in the provided textbox.</p>
      <p>Your description can be as long or as short as you’d like, from just a few words up to a whole paragraph if you feel that is necessary.</p>
      <p></p>
      <p>The next page will ask for participant ID.</p>
      <p></p>
      <p>After all the trials have been completed, the last page will ask for some demographic information.</p>
      <p></p>
      <p>Once you are ready to start, click any button.</p>
    </div>",NA,NA,NA,NA,NA,NA,NA,NA,NA,NA,NA,NA,/Users/martincz/GitHub/COGS119/group_wi26_verbal_complexity/analysis/../data/raw_data/p6jr3lbn8z7_1772139163612.csv
NA,2486,survey-text,2,2.0.0,19972,p6jr3lbn8z7,NA,NA,NA,"{""participant_id"":""sheep""}",NA,NA,NA,NA,NA,NA,NA,NA,NA,NA,NA,/Users/martincz/GitHub/COGS119/group_wi26_verbal_complexity/analysis/../data/raw_data/p6jr3lbn8z7_1772139163612.csv
TRUE,NA,preload,3,2.0.0,20266,p6jr3lbn8z7,NA,NA,NA,NA,FALSE,[],[],[],NA,NA,NA,NA,NA,NA,NA,/Users/martincz/GitHub/COGS119/group_wi26_verbal_complexity/analysis/../data/raw_data/p6jr3lbn8z7_1772139163612.csv
NA,7317,survey-text,4,2.0.0,27600,p6jr3lbn8z7,NA,NA,NA,"{""image_description"":""pointy heart""}",NA,NA,NA,NA,stimuli/30.jpg,easy,NA,pointy heart,2,NA,NA,/Users/martincz/GitHub/COGS119/group_wi26_verbal_complexity/analysis/../data/raw_data/p6jr3lbn8z7_1772139163612.csv
NA,12667,survey-text,5,2.0.0,40272,p6jr3lbn8z7,NA,NA,NA,"{""image_description"":""lopsided pentagon""}",NA,NA,NA,NA,stimuli/14.jpg,easy,NA,lopsided pentagon,2,NA,NA,/Users/martincz/GitHub/COGS119/group_wi26_verbal_complexity/analysis/../data/raw_data/p6jr3lbn8z7_1772139163612.csv
NA,10512,survey-text,6,2.0.0,50789,p6jr3lbn8z7,NA,NA,NA,"{""image_description"":""crazy pointy bird""}",NA,NA,NA,NA,stimuli/126.jpg,hard,NA,crazy pointy bird,3,NA,NA,/Users/martincz/GitHub/COGS119/group_wi26_verbal_complexity/analysis/../data/raw_data/p6jr3lbn8z7_1772139163612.csv
NA,4281,survey-text,7,2.0.0,55078,p6jr3lbn8z7,NA,NA,NA,"{""image_description"":""rabbit""}",NA,NA,NA,NA,stimuli/150.jpg,hard,NA,rabbit,1,NA,NA,/Users/martincz/GitHub/COGS119/group_wi26_verbal_complexity/analysis/../data/raw_data/p6jr3lbn8z7_1772139163612.csv
NA,7355,survey-text,8,2.0.0,62439,p6jr3lbn8z7,NA,NA,NA,"{""image_description"":""pointy blob""}",NA,NA,NA,NA,stimuli/158.jpg,hard,NA,pointy blob,2,NA,NA,/Users/martincz/GitHub/COGS119/group_wi26_verbal_complexity/analysis/../data/raw_data/p6jr3lbn8z7_1772139163612.csv
NA,7381,survey-text,9,2.0.0,69828,p6jr3lbn8z7,NA,NA,NA,"{""image_description"":""blob""}",NA,NA,NA,NA,stimuli/94.jpg,medium,NA,blob,1,NA,NA,/Users/martincz/GitHub/COGS119/group_wi26_verbal_complexity/analysis/../data/raw_data/p6jr3lbn8z7_1772139163612.csv
NA,9739,survey-text,10,2.0.0,79576,p6jr3lbn8z7,NA,NA,NA,"{""image_description"":""gloved hand""}",NA,NA,NA,NA,stimuli/62.jpg,medium,NA,gloved hand,2,NA,NA,/Users/martincz/GitHub/COGS119/group_wi26_verbal_complexity/analysis/../data/raw_data/p6jr3lbn8z7_1772139163612.csv
NA,15341,survey-text,11,2.0.0,94927,p6jr3lbn8z7,NA,NA,NA,"{""image_description"":""sideways bird, beak is the two identical points""}",NA,NA,NA,NA,stimuli/118.jpg,hard,NA,"sideways bird, beak is the two identical points",8,NA,NA,/Users/martincz/GitHub/COGS119/group_wi26_verbal_complexity/analysis/../data/raw_data/p6jr3lbn8z7_1772139163612.csv
NA,5273,survey-text,12,2.0.0,100210,p6jr3lbn8z7,NA,NA,NA,"{""image_description"":""weird blob""}",NA,NA,NA,NA,stimuli/38.jpg,easy,NA,weird blob,2,NA,NA,/Users/martincz/GitHub/COGS119/group_wi26_verbal_complexity/analysis/../data/raw_data/p6jr3lbn8z7_1772139163612.csv
NA,14025,survey-text,13,2.0.0,114241,p6jr3lbn8z7,NA,NA,NA,"{""image_description"":""lopsided square, one edge is longer""}",NA,NA,NA,NA,stimuli/6.jpg,easy,NA,"lopsided square, one edge is longer",6,NA,NA,/Users/martincz/GitHub/COGS119/group_wi26_verbal_complexity/analysis/../data/raw_data/p6jr3lbn8z7_1772139163612.csv
NA,19961,survey-text,14,2.0.0,134209,p6jr3lbn8z7,NA,NA,NA,"{""image_description"":""almost identical, spiderman-esque logo""}",NA,NA,NA,NA,stimuli/86.jpg,medium,NA,"almost identical, spiderman-esque logo",4,NA,NA,/Users/martincz/GitHub/COGS119/group_wi26_verbal_complexity/analysis/../data/raw_data/p6jr3lbn8z7_1772139163612.csv
NA,4258,survey-text,15,2.0.0,138477,p6jr3lbn8z7,NA,NA,NA,"{""image_description"":""witch on broom""}",NA,NA,NA,NA,stimuli/142.jpg,hard,NA,witch on broom,3,NA,NA,/Users/martincz/GitHub/COGS119/group_wi26_verbal_complexity/analysis/../data/raw_data/p6jr3lbn8z7_1772139163612.csv
NA,6442,survey-text,16,2.0.0,144928,p6jr3lbn8z7,NA,NA,NA,"{""image_description"":""someone has a long nose""}",NA,NA,NA,NA,stimuli/46.jpg,easy,NA,someone has a long nose,5,NA,NA,/Users/martincz/GitHub/COGS119/group_wi26_verbal_complexity/analysis/../data/raw_data/p6jr3lbn8z7_1772139163612.csv
NA,10007,survey-text,17,2.0.0,154944,p6jr3lbn8z7,NA,NA,NA,"{""image_description"":""someone is getting punched in the gut""}",NA,NA,NA,NA,stimuli/102.jpg,medium,NA,someone is getting punched in the gut,7,NA,NA,/Users/martincz/GitHub/COGS119/group_wi26_verbal_complexity/analysis/../data/raw_data/p6jr3lbn8z7_1772139163612.csv
NA,10208,survey-text,18,2.0.0,165160,p6jr3lbn8z7,NA,NA,NA,"{""image_description"":""arrow pointing down""}",NA,NA,NA,NA,stimuli/54.jpg,medium,NA,arrow pointing down,3,NA,NA,/Users/martincz/GitHub/COGS119/group_wi26_verbal_complexity/analysis/../data/raw_data/p6jr3lbn8z7_1772139163612.csv
NA,6425,survey-text,19,2.0.0,171594,p6jr3lbn8z7,NA,NA,NA,"{""image_description"":""pointy blob""}",NA,NA,NA,NA,stimuli/78.jpg,medium,NA,pointy blob,2,NA,NA,/Users/martincz/GitHub/COGS119/group_wi26_verbal_complexity/analysis/../data/raw_data/p6jr3lbn8z7_1772139163612.csv
NA,6308,survey-text,20,2.0.0,177911,p6jr3lbn8z7,NA,NA,NA,"{""image_description"":""lopsided blob""}",NA,NA,NA,NA,stimuli/134.jpg,hard,NA,lopsided blob,2,NA,NA,/Users/martincz/GitHub/COGS119/group_wi26_verbal_complexity/analysis/../data/raw_data/p6jr3lbn8z7_1772139163612.csv
NA,18891,survey-text,21,2.0.0,196810,p6jr3lbn8z7,NA,NA,NA,"{""image_description"":""for courners, bent square""}",NA,NA,NA,NA,stimuli/22.jpg,easy,NA,"for courners, bent square",4,NA,NA,/Users/martincz/GitHub/COGS119/group_wi26_verbal_complexity/analysis/../data/raw_data/p6jr3lbn8z7_1772139163612.csv
NA,14759,survey-text,22,2.0.0,211577,p6jr3lbn8z7,NA,NA,NA,"{""image_description"":""floppy hat with one edge lifted up""}",NA,NA,NA,NA,stimuli/70.jpg,medium,NA,floppy hat with one edge lifted up,7,NA,NA,/Users/martincz/GitHub/COGS119/group_wi26_verbal_complexity/analysis/../data/raw_data/p6jr3lbn8z7_1772139163612.csv
NA,9457,survey-text,23,2.0.0,221039,p6jr3lbn8z7,NA,NA,NA,"{""image_description"":""dog with larger front legs""}",NA,NA,NA,NA,stimuli/110.jpg,hard,NA,dog with larger front legs,5,NA,NA,/Users/martincz/GitHub/COGS119/group_wi26_verbal_complexity/analysis/../data/raw_data/p6jr3lbn8z7_1772139163612.csv
NA,3931,survey-text,24,2.0.0,224972,p6jr3lbn8z7,NA,NA,NA,"{""participant_major"":""psychology""}",NA,NA,NA,NA,NA,NA,NA,NA,NA,NA,NA,/Users/martincz/GitHub/COGS119/group_wi26_verbal_complexity/analysis/../data/raw_data/p6jr3lbn8z7_1772139163612.csv
NA,2414,survey-multi-choice,25,2.2.0,227389,p6jr3lbn8z7,NA,NA,NA,"{""participant_gender"":""Female""}",NA,NA,NA,NA,NA,NA,NA,NA,NA,[0],[0],/Users/martincz/GitHub/COGS119/group_wi26_verbal_complexity/analysis/../data/raw_data/p6jr3lbn8z7_1772139163612.csv
TRUE,1030,fullscreen,0,null,2034,p6st0wyc3pc,NA,NA,NA,NA,NA,NA,NA,NA,NA,NA,NA,NA,NA,NA,NA,/Users/martincz/GitHub/COGS119/group_wi26_verbal_complexity/analysis/../data/raw_data/p6st0wyc3pc_1772141852994.csv
NA,8700,html-keyboard-response,1,2.0.0,10737,p6st0wyc3pc,NA,NA,"
    <div>
      <p>Welcome to our experiment!</p>
      <p>In each trial, you will see a shape. Describe the shape as accurately as you can in the provided textbox.</p>
      <p>Your description can be as long or as short as you’d like, from just a few words up to a whole paragraph if you feel that is necessary.</p>
      <p></p>
      <p>The next page will ask for participant ID.</p>
      <p></p>
      <p>After all the trials have been completed, the last page will ask for some demographic information.</p>
      <p></p>
      <p>Once you are ready to start, click any button.</p>
    </div>",NA,NA,NA,NA,NA,NA,NA,NA,NA,NA,NA,NA,/Users/martincz/GitHub/COGS119/group_wi26_verbal_complexity/analysis/../data/raw_data/p6st0wyc3pc_1772141852994.csv
NA,1555,survey-text,2,2.0.0,12300,p6st0wyc3pc,NA,NA,NA,"{""participant_id"":""crow""}",NA,NA,NA,NA,NA,NA,NA,NA,NA,NA,NA,/Users/martincz/GitHub/COGS119/group_wi26_verbal_complexity/analysis/../data/raw_data/p6st0wyc3pc_1772141852994.csv
TRUE,NA,preload,3,2.0.0,12499,p6st0wyc3pc,NA,NA,NA,NA,FALSE,[],[],[],NA,NA,NA,NA,NA,NA,NA,/Users/martincz/GitHub/COGS119/group_wi26_verbal_complexity/analysis/../data/raw_data/p6st0wyc3pc_1772141852994.csv
NA,28740,survey-text,4,2.0.0,41245,p6st0wyc3pc,NA,NA,NA,"{""image_description"":""phineas's head from phineas and ferb, looking downwards and hunched over with a rock on his back""}",NA,NA,NA,NA,stimuli/100.jpg,medium,NA,"phineas's head from phineas and ferb, looking downwards and hunched over with a rock on his back",17,NA,NA,/Users/martincz/GitHub/COGS119/group_wi26_verbal_complexity/analysis/../data/raw_data/p6st0wyc3pc_1772141852994.csv
NA,168348,survey-text,5,2.0.0,209593,p6st0wyc3pc,NA,NA,NA,"{""image_description"":""start with a square. there is a big dipper shape cut out from the top, slightly slanted. on the left side, there are 3 bumps cut out like a mountain range, with the one at the top left the biggest with a flat surface at the peak. the middle one is narrow and pointy. the last one towards the bottom is a pointy and little wider and connected to the middle one. on the bottom, there is a small thin triangle cut out towards the bottom right, with one point of the triangle pointed upwards.""}",NA,NA,NA,NA,stimuli/84.jpg,medium,NA,"start with a square. there is a big dipper shape cut out from the top, slightly slanted. on the left side, there are 3 bumps cut out like a mountain range, with the one at the top left the biggest with a flat surface at the peak. the middle one is narrow and pointy. the last one towards the bottom is a pointy and little wider and connected to the middle one. on the bottom, there is a small thin triangle cut out towards the bottom right, with one point of the triangle pointed upwards.",95,NA,NA,/Users/martincz/GitHub/COGS119/group_wi26_verbal_complexity/analysis/../data/raw_data/p6st0wyc3pc_1772141852994.csv
NA,94383,survey-text,6,2.0.0,303976,p6st0wyc3pc,NA,NA,NA,"{""image_description"":""rectangle that looks kinda like the state of washington. at the bottom edge in the middle, add a miniature state of nevada shape. at the top right, there is a thin trapezoid cut out, pretty small like 10% of the size of the overall shape, and it is pointing diagonally inwards towards the center.""}",NA,NA,NA,NA,stimuli/68.jpg,medium,NA,"rectangle that looks kinda like the state of washington. at the bottom edge in the middle, add a miniature state of nevada shape. at the top right, there is a thin trapezoid cut out, pretty small like 10% of the size of the overall shape, and it is pointing diagonally inwards towards the center.",54,NA,NA,/Users/martincz/GitHub/COGS119/group_wi26_verbal_complexity/analysis/../data/raw_data/p6st0wyc3pc_1772141852994.csv
NA,96032,survey-text,7,2.0.0,400008,p6st0wyc3pc,NA,NA,NA,"{""image_description"":""a chicken or bird, with a head and pointy triangular beak pointed downwards at the top right. there is a feather sticking out of its head. moving to the left, there is a wide trapezoidal shape with a triangle cut out of it, sticking upwards as if it is the tail feathers of the bird. towards the bottom of the shape, are two triangles pointing left and right, like legs of an animal.""}",NA,NA,NA,NA,stimuli/148.jpg,hard,NA,"a chicken or bird, with a head and pointy triangular beak pointed downwards at the top right. there is a feather sticking out of its head. moving to the left, there is a wide trapezoidal shape with a triangle cut out of it, sticking upwards as if it is the tail feathers of the bird. towards the bottom of the shape, are two triangles pointing left and right, like legs of an animal.",73,NA,NA,/Users/martincz/GitHub/COGS119/group_wi26_verbal_complexity/analysis/../data/raw_data/p6st0wyc3pc_1772141852994.csv
NA,95165,survey-text,8,2.0.0,495174,p6st0wyc3pc,NA,NA,NA,"{""image_description"":""square with a big triangle cut out from the left side, and a smaller one cut out from the bottom towards the left. on the top right, the corner is cut out, with an angle of about 135 degrees. at the top side of the square is another small cut out isoceles triangle.""}",NA,NA,NA,NA,stimuli/60.jpg,medium,NA,"square with a big triangle cut out from the left side, and a smaller one cut out from the bottom towards the left. on the top right, the corner is cut out, with an angle of about 135 degrees. at the top side of the square is another small cut out isoceles triangle.",53,NA,NA,/Users/martincz/GitHub/COGS119/group_wi26_verbal_complexity/analysis/../data/raw_data/p6st0wyc3pc_1772141852994.csv
NA,26233,survey-text,9,2.0.0,521407,p6st0wyc3pc,NA,NA,NA,"{""image_description"":""a rectangle with a bunch of trapezoid tumors sticking out of it. There are two on the right, one on the bottom, and a small one on the left.""}",NA,NA,NA,NA,stimuli/116.jpg,hard,NA,"a rectangle with a bunch of trapezoid tumors sticking out of it. There are two on the right, one on the bottom, and a small one on the left.",29,NA,NA,/Users/martincz/GitHub/COGS119/group_wi26_verbal_complexity/analysis/../data/raw_data/p6st0wyc3pc_1772141852994.csv
NA,33814,survey-text,10,2.0.0,555223,p6st0wyc3pc,NA,NA,NA,"{""image_description"":""a character from my little pony's side profile, facing to the left. It has a horn and a fat snout""}",NA,NA,NA,NA,stimuli/92.jpg,medium,NA,"a character from my little pony's side profile, facing to the left. It has a horn and a fat snout",20,NA,NA,/Users/martincz/GitHub/COGS119/group_wi26_verbal_complexity/analysis/../data/raw_data/p6st0wyc3pc_1772141852994.csv
NA,6833,survey-text,11,2.0.0,562057,p6st0wyc3pc,NA,NA,NA,"{""image_description"":""a spear shape pointing towards the top right""}",NA,NA,NA,NA,stimuli/28.jpg,easy,NA,a spear shape pointing towards the top right,8,NA,NA,/Users/martincz/GitHub/COGS119/group_wi26_verbal_complexity/analysis/../data/raw_data/p6st0wyc3pc_1772141852994.csv
NA,22965,survey-text,12,2.0.0,585023,p6st0wyc3pc,NA,NA,NA,"{""image_description"":""a diamond with the bottom cut flat, pointed up towards the right. it is combined with a triangle on the right side.""}",NA,NA,NA,NA,stimuli/36.jpg,easy,NA,"a diamond with the bottom cut flat, pointed up towards the right. it is combined with a triangle on the right side.",22,NA,NA,/Users/martincz/GitHub/COGS119/group_wi26_verbal_complexity/analysis/../data/raw_data/p6st0wyc3pc_1772141852994.csv
NA,19298,survey-text,13,2.0.0,604322,p6st0wyc3pc,NA,NA,NA,"{""image_description"":""a police badge slanted to the right, with the left side cut a bit more sharply""}",NA,NA,NA,NA,stimuli/20.jpg,easy,NA,"a police badge slanted to the right, with the left side cut a bit more sharply",16,NA,NA,/Users/martincz/GitHub/COGS119/group_wi26_verbal_complexity/analysis/../data/raw_data/p6st0wyc3pc_1772141852994.csv
NA,41683,survey-text,14,2.0.0,646006,p6st0wyc3pc,NA,NA,NA,"{""image_description"":""a square. bottom side has a big triangle cut upwards. top right has a square cut out. the left side has a trapezoid combined with a triangle cut out of it""}",NA,NA,NA,NA,stimuli/76.jpg,medium,NA,a square. bottom side has a big triangle cut upwards. top right has a square cut out. the left side has a trapezoid combined with a triangle cut out of it,31,NA,NA,/Users/martincz/GitHub/COGS119/group_wi26_verbal_complexity/analysis/../data/raw_data/p6st0wyc3pc_1772141852994.csv
NA,25515,survey-text,15,2.0.0,671522,p6st0wyc3pc,NA,NA,NA,"{""image_description"":""a wiggly shape with 4 main sections. it looks like an S shape vaguely, if the S was laying on its side""}",NA,NA,NA,NA,stimuli/156.jpg,hard,NA,"a wiggly shape with 4 main sections. it looks like an S shape vaguely, if the S was laying on its side",22,NA,NA,/Users/martincz/GitHub/COGS119/group_wi26_verbal_complexity/analysis/../data/raw_data/p6st0wyc3pc_1772141852994.csv
NA,12799,survey-text,16,2.0.0,684322,p6st0wyc3pc,NA,NA,NA,"{""image_description"":""a shape with a bunch of triangles cut out of it. jagged edges""}",NA,NA,NA,NA,stimuli/132.jpg,hard,NA,a shape with a bunch of triangles cut out of it. jagged edges,13,NA,NA,/Users/martincz/GitHub/COGS119/group_wi26_verbal_complexity/analysis/../data/raw_data/p6st0wyc3pc_1772141852994.csv
NA,15315,survey-text,17,2.0.0,699639,p6st0wyc3pc,NA,NA,NA,"{""image_description"":""flat on the top side. bottom side has triangle and rectangle cut out""}",NA,NA,NA,NA,stimuli/52.jpg,easy,NA,flat on the top side. bottom side has triangle and rectangle cut out,13,NA,NA,/Users/martincz/GitHub/COGS119/group_wi26_verbal_complexity/analysis/../data/raw_data/p6st0wyc3pc_1772141852994.csv
